id,group,block,trial,classification,difficulty,response,rt,stimulus
002,experienced,3,1,blast,easy,blast,0.853,blastEasy/BL_10166384.jpg
002,experienced,3,2,non-blast,easy,non-blast,0.575,nonBlastEasy/16258001115A_069.jpg
002,experienced,3,3,non-blast,hard,blast,1.136,nonBlastHard/BL_11504083.jpg
002,experienced,3,4,non-blast,hard,non-blast,0.875,nonBlastHard/MY_9455143.jpg
002,experienced,3,5,blast,easy,blast,0.748,blastEasy/BL_4062147.jpg
002,experienced,3,6,blast,easy,blast,0.706,blastEasy/BL_2256084.jpg
002,experienced,3,7,blast,hard,blast,0.686,blastHard/OTH_21675275.jpg
002,experienced,3,8,blast,hard,blast,0.894,blastHard/BL_21818179.jpg
002,experienced,3,9,non-blast,easy,non-blast,0.592,nonBlastEasy/PC_18672.jpg
002,experienced,3,10,blast,hard,blast,0.637,blastHard/BL_1121527.jpg
002,experienced,3,11,non-blast,easy,non-blast,0.527,nonBlastEasy/SNE_10020536.jpg
002,experienced,3,12,non-blast,easy,non-blast,0.699,nonBlastEasy/LY_2010584.jpg
002,experienced,3,13,blast,easy,blast,0.509,blastEasy/BL_10020433.jpg
002,experienced,3,14,non-blast,hard,non-blast,0.751,nonBlastHard/VLY_9451032.jpg
002,experienced,3,15,blast,easy,blast,0.717,blastEasy/BL_24839843.jpg
002,experienced,3,16,non-blast,hard,blast,2.759,nonBlastHard/LY_4537514.jpg
002,experienced,3,17,non-blast,easy,non-blast,0.573,nonBlastEasy/16258001115A_012.jpg
002,experienced,3,18,non-blast,easy,non-blast,0.714,nonBlastEasy/ER0944_044.jpg
002,experienced,3,19,blast,hard,blast,0.746,blastHard/OTH_12288082.jpg
002,experienced,3,20,blast,hard,blast,0.859,blastHard/OTH_24746583.jpg
002,experienced,3,21,non-blast,hard,blast,1.468,nonBlastHard/BL_866501.jpg
002,experienced,3,22,non-blast,easy,non-blast,0.699,nonBlastEasy/ER0944_076.jpg
002,experienced,3,23,blast,hard,blast,0.907,blastHard/BL_2038845.jpg
002,experienced,3,24,non-blast,easy,non-blast,0.557,nonBlastEasy/14228000751A_077.jpg
002,experienced,3,25,blast,easy,blast,0.621,blastEasy/BL_4062115.jpg
002,experienced,3,26,non-blast,hard,blast,2.99,nonBlastHard/16258001115A_076.jpg
002,experienced,3,27,blast,hard,blast,0.747,blastHard/BL_1121539.jpg
002,experienced,3,28,blast,hard,blast,0.666,blastHard/BL_21964527.jpg
002,experienced,3,29,blast,easy,blast,0.618,blastEasy/OTH_24746620.jpg
002,experienced,3,30,non-blast,easy,non-blast,0.558,nonBlastEasy/SNE_23013274.jpg
002,experienced,3,31,blast,hard,blast,0.732,blastHard/VLY_1120674.jpg
002,experienced,3,32,non-blast,hard,non-blast,0.814,nonBlastHard/VLY_23416215.jpg
002,experienced,3,33,non-blast,easy,non-blast,0.891,nonBlastEasy/LY_8271951.jpg
002,experienced,3,34,non-blast,easy,non-blast,0.828,nonBlastEasy/ER0944_004.jpg
002,experienced,3,35,non-blast,hard,non-blast,1.388,nonBlastHard/MY_9455177.jpg
002,experienced,3,36,non-blast,easy,non-blast,0.542,nonBlastEasy/16258001115A_005.jpg
002,experienced,3,37,non-blast,hard,non-blast,0.81,nonBlastHard/MO_14163691.jpg
002,experienced,3,38,non-blast,hard,non-blast,1.072,nonBlastHard/VLY_4522566.jpg
002,experienced,3,39,blast,hard,blast,0.685,blastHard/BL_294395.jpg
002,experienced,3,40,non-blast,hard,blast,2.001,nonBlastHard/VLY_4817070.jpg
002,experienced,3,41,blast,easy,blast,0.668,blastEasy/OTH_12288137.jpg
002,experienced,3,42,non-blast,hard,non-blast,3.13,nonBlastHard/VLY_4283274.jpg
002,experienced,3,43,non-blast,easy,non-blast,0.601,nonBlastEasy/EO_10020968.jpg
002,experienced,3,44,non-blast,hard,blast,1.162,nonBlastHard/PC_4237886.jpg
002,experienced,3,45,non-blast,hard,blast,0.569,nonBlastHard/OTH_21675242.jpg
002,experienced,3,46,blast,easy,blast,0.621,blastEasy/BL_12930096.jpg
002,experienced,3,47,blast,hard,blast,0.651,blastHard/OTH_21856141.jpg
002,experienced,3,48,non-blast,easy,non-blast,0.523,nonBlastEasy/16258001115A_015.jpg
002,experienced,3,49,blast,easy,blast,0.684,blastEasy/BL_21930875.jpg
002,experienced,3,50,blast,hard,blast,0.735,blastHard/OTH_21675203.jpg
002,experienced,3,51,blast,easy,blast,0.631,blastEasy/OTH_25263205.jpg
002,experienced,3,52,blast,hard,blast,0.635,blastHard/BL_1121494.jpg
002,experienced,3,53,blast,easy,blast,0.588,blastEasy/OTH_12288092.jpg
002,experienced,3,54,blast,easy,blast,0.572,blastEasy/BL_10020457.jpg
002,experienced,3,55,non-blast,hard,non-blast,0.652,nonBlastHard/16258001115A_044.jpg
002,experienced,3,56,non-blast,hard,non-blast,0.672,nonBlastHard/16258001115A_032.jpg
002,experienced,3,57,non-blast,easy,non-blast,0.638,nonBlastEasy/SNE_23013208.jpg
002,experienced,3,58,blast,hard,blast,0.895,blastHard/OTH_24746609.jpg
002,experienced,3,59,non-blast,easy,non-blast,0.606,nonBlastEasy/SNE_25395286.jpg
002,experienced,3,60,non-blast,hard,blast,1.917,nonBlastHard/HC_9768.jpg
002,experienced,3,61,blast,easy,blast,0.712,blastEasy/OTH_12288131.jpg
002,experienced,3,62,blast,hard,blast,0.987,blastHard/BL_12930070.jpg
002,experienced,3,63,blast,easy,blast,0.585,blastEasy/OTH_23078392.jpg
002,experienced,3,64,blast,hard,blast,0.78,blastHard/BL_23546038.jpg
002,experienced,3,65,non-blast,easy,non-blast,0.523,nonBlastEasy/ER0944_010.jpg
002,experienced,3,66,blast,easy,blast,0.576,blastEasy/BL_12930163.jpg
002,experienced,3,67,blast,hard,blast,1.038,blastHard/BL_26626240.jpg
002,experienced,3,68,blast,hard,blast,0.669,blastHard/OTH_23078449.jpg
002,experienced,3,69,blast,easy,blast,0.653,blastEasy/BL_4062100.jpg
002,experienced,3,70,non-blast,hard,non-blast,0.972,nonBlastHard/16253007354A_027.jpg
002,experienced,3,71,blast,easy,blast,0.704,blastEasy/BL_21964525.jpg
002,experienced,3,72,blast,easy,blast,0.59,blastEasy/OTH_21668256.jpg
002,experienced,3,73,non-blast,hard,blast,1.436,nonBlastHard/PMY_9295594.jpg
002,experienced,3,74,blast,easy,blast,0.605,blastEasy/BL_21930949.jpg
002,experienced,3,75,blast,easy,blast,0.606,blastEasy/BL_12930032.jpg
002,experienced,3,76,blast,hard,blast,1.146,blastHard/BL_1121510.jpg
002,experienced,3,77,blast,easy,blast,0.781,blastEasy/BL_1199993.jpg
002,experienced,3,78,blast,easy,blast,0.88,blastEasy/BL_1200010.jpg
002,experienced,3,79,non-blast,easy,non-blast,0.51,nonBlastEasy/ER0944_025.jpg
002,experienced,3,80,non-blast,easy,non-blast,0.652,nonBlastEasy/ER0944_046.jpg
002,experienced,3,81,blast,hard,blast,0.828,blastHard/BL_2256090.jpg
002,experienced,3,82,blast,hard,blast,0.906,blastHard/BL_26626171.jpg
002,experienced,3,83,non-blast,hard,blast,1.533,nonBlastHard/PC_4237901.jpg
002,experienced,3,84,non-blast,easy,non-blast,0.713,nonBlastEasy/EO_10020866.jpg
002,experienced,3,85,non-blast,easy,non-blast,0.571,nonBlastEasy/SNE_10020606.jpg
002,experienced,3,86,non-blast,hard,non-blast,2.369,nonBlastHard/VLY_9446390.jpg
002,experienced,3,87,blast,easy,blast,0.573,blastEasy/BL_10020393.jpg
002,experienced,3,88,non-blast,hard,non-blast,1.053,nonBlastHard/BL_21818137.jpg
002,experienced,3,89,non-blast,easy,non-blast,0.605,nonBlastEasy/ER0944_007.jpg
002,experienced,3,90,blast,hard,blast,0.893,blastHard/OTH_16204423.jpg
002,experienced,3,91,blast,hard,blast,0.671,blastHard/BL_1121444.jpg
002,experienced,3,92,non-blast,easy,non-blast,1.035,nonBlastEasy/LY_10021359.jpg
002,experienced,3,93,non-blast,easy,non-blast,0.571,nonBlastEasy/ER0944_011.jpg
002,experienced,3,94,non-blast,hard,non-blast,0.811,nonBlastHard/VLY_2010536.jpg
002,experienced,3,95,blast,hard,blast,0.719,blastHard/BL_3931090.jpg
002,experienced,3,96,non-blast,hard,non-blast,1.147,nonBlastHard/VLY_17642979.jpg
002,experienced,3,97,blast,easy,blast,0.78,blastEasy/BL_3931099.jpg
002,experienced,3,98,blast,hard,blast,0.635,blastHard/OTH_21856094.jpg
002,experienced,3,99,non-blast,hard,blast,1.051,nonBlastHard/USRWBC1_9913295.jpg
002,experienced,3,100,non-blast,easy,non-blast,0.588,nonBlastEasy/LY_1314707.jpg
002,experienced,6,1,blast,easy,blast,0.581,blastEasy/BL_23549452.jpg
002,experienced,6,2,blast,hard,blast,0.496,blastHard/BL_669395.jpg
002,experienced,6,3,blast,easy,blast,0.505,blastEasy/BL_21964525.jpg
002,experienced,6,4,non-blast,hard,non-blast,0.944,nonBlastHard/MY_9455143.jpg
002,experienced,6,5,blast,easy,blast,0.668,blastEasy/BL_4062132.jpg
002,experienced,6,6,blast,hard,blast,0.637,blastHard/OTH_21856094.jpg
002,experienced,6,7,non-blast,easy,non-blast,0.528,nonBlastEasy/SNE_10020550.jpg
002,experienced,6,8,blast,easy,blast,0.525,blastEasy/BL_1121496.jpg
002,experienced,6,9,non-blast,easy,non-blast,0.696,nonBlastEasy/LY_899979.jpg
002,experienced,6,10,non-blast,easy,non-blast,0.59,nonBlastEasy/ER0944_004.jpg
002,experienced,6,11,blast,easy,blast,0.531,blastEasy/BL_24839843.jpg
002,experienced,6,12,blast,easy,blast,0.537,blastEasy/OTH_12288098.jpg
002,experienced,6,13,non-blast,hard,non-blast,1.652,nonBlastHard/VLY_9451032.jpg
002,experienced,6,14,non-blast,hard,non-blast,0.713,nonBlastHard/16253007354A_077.jpg
002,experienced,6,15,non-blast,hard,blast,1.731,nonBlastHard/LY_4537514.jpg
002,experienced,6,16,non-blast,easy,non-blast,0.511,nonBlastEasy/16258001115A_015.jpg
002,experienced,6,17,blast,hard,blast,0.9,blastHard/BL_11637390.jpg
002,experienced,6,18,non-blast,easy,non-blast,1.509,nonBlastEasy/16258001115A_078.jpg
002,experienced,6,19,non-blast,easy,non-blast,0.553,nonBlastEasy/LY_10021352.jpg
002,experienced,6,20,blast,easy,blast,0.574,blastEasy/BL_7477450.jpg
002,experienced,6,21,blast,hard,blast,0.74,blastHard/OTH_12288082.jpg
002,experienced,6,22,blast,easy,blast,0.525,blastEasy/BL_21930172.jpg
002,experienced,6,23,non-blast,easy,non-blast,0.511,nonBlastEasy/ER0944_025.jpg
002,experienced,6,24,blast,easy,blast,0.607,blastEasy/BL_2256084.jpg
002,experienced,6,25,non-blast,hard,non-blast,3.364,nonBlastHard/VLY_17643038.jpg
002,experienced,6,26,non-blast,easy,non-blast,0.57,nonBlastEasy/ER0944_042.jpg
002,experienced,6,27,non-blast,easy,non-blast,0.562,nonBlastEasy/ER0944_038.jpg
002,experienced,6,28,blast,easy,blast,0.687,blastEasy/OTH_21668256.jpg
002,experienced,6,29,non-blast,easy,non-blast,0.561,nonBlastEasy/14228000751A_077.jpg
002,experienced,6,30,blast,easy,blast,0.48,blastEasy/VLY_10022863.jpg
002,experienced,6,31,non-blast,hard,blast,1.22,nonBlastHard/PC_4237901.jpg
002,experienced,6,32,blast,hard,blast,0.621,blastHard/OTH_21675313.jpg
002,experienced,6,33,non-blast,easy,non-blast,0.508,nonBlastEasy/SNE_23013314.jpg
002,experienced,6,34,non-blast,hard,non-blast,0.756,nonBlastHard/VLY_2010536.jpg
002,experienced,6,35,blast,easy,blast,0.584,blastEasy/OTH_24746620.jpg
002,experienced,6,36,blast,easy,blast,0.557,blastEasy/OTH_25263198.jpg
002,experienced,6,37,blast,hard,blast,0.556,blastHard/OTH_23078373.jpg
002,experienced,6,38,blast,easy,blast,0.519,blastEasy/BL_14263216.jpg
002,experienced,6,39,blast,easy,blast,0.461,blastEasy/BL_21930949.jpg
002,experienced,6,40,blast,easy,blast,0.95,blastEasy/BL_26626166.jpg
002,experienced,6,41,blast,hard,blast,0.803,blastHard/BL_3931115.jpg
002,experienced,6,42,non-blast,easy,non-blast,0.609,nonBlastEasy/ER0944_046.jpg
002,experienced,6,43,non-blast,hard,non-blast,3.815,nonBlastHard/LY_4536057.jpg
002,experienced,6,44,blast,hard,blast,0.583,blastHard/BL_12930089.jpg
002,experienced,6,45,blast,hard,blast,0.945,blastHard/BL_1121494.jpg
002,experienced,6,46,non-blast,hard,non-blast,0.781,nonBlastHard/VLY_23416215.jpg
002,experienced,6,47,non-blast,easy,non-blast,0.546,nonBlastEasy/16258001115A_067.jpg
002,experienced,6,48,non-blast,hard,blast,0.869,nonBlastHard/LY_4462474.jpg
002,experienced,6,49,non-blast,easy,non-blast,0.504,nonBlastEasy/SNE_25598463.jpg
002,experienced,6,50,blast,hard,blast,0.547,blastHard/OTH_24746677.jpg
002,experienced,6,51,non-blast,hard,blast,0.888,nonBlastHard/BL_11504083.jpg
002,experienced,6,52,non-blast,hard,non-blast,3.345,nonBlastHard/16258001115A_044.jpg
002,experienced,6,53,blast,easy,blast,0.54,blastEasy/BL_10166384.jpg
002,experienced,6,54,non-blast,hard,blast,3.914,nonBlastHard/PC_4237886.jpg
002,experienced,6,55,blast,hard,blast,0.654,blastHard/BL_21964458.jpg
002,experienced,6,56,blast,easy,blast,0.574,blastEasy/BL_1121443.jpg
002,experienced,6,57,blast,easy,blast,0.549,blastEasy/OTH_20188283.jpg
002,experienced,6,58,non-blast,easy,non-blast,1.286,nonBlastEasy/LY_10021359.jpg
002,experienced,6,59,non-blast,easy,non-blast,0.531,nonBlastEasy/LY_8271951.jpg
002,experienced,6,60,blast,hard,blast,0.689,blastHard/BL_1199925.jpg
002,experienced,6,61,blast,easy,blast,0.536,blastEasy/BL_2256018.jpg
002,experienced,6,62,blast,hard,blast,4.6,blastHard/VLY_9310359.jpg
002,experienced,6,63,blast,easy,blast,0.647,blastEasy/BL_10020433.jpg
002,experienced,6,64,non-blast,hard,blast,1.746,nonBlastHard/PMY_9295594.jpg
002,experienced,6,65,non-blast,hard,non-blast,2.359,nonBlastHard/LY_4461956.jpg
002,experienced,6,66,blast,easy,blast,0.624,blastEasy/OTH_216294.jpg
002,experienced,6,67,non-blast,easy,non-blast,0.592,nonBlastEasy/LY_2010569.jpg
002,experienced,6,68,non-blast,hard,non-blast,0.687,nonBlastHard/MY_9458406.jpg
002,experienced,6,69,non-blast,hard,blast,1.762,nonBlastHard/VLY_9446390.jpg
002,experienced,6,70,blast,hard,blast,1.151,blastHard/BL_21818179.jpg
002,experienced,6,71,blast,hard,blast,2.279,blastHard/BL_10166337.jpg
002,experienced,6,72,non-blast,easy,non-blast,0.535,nonBlastEasy/16258001115A_017.jpg
002,experienced,6,73,non-blast,hard,non-blast,1.685,nonBlastHard/BL_21818131.jpg
002,experienced,6,74,blast,easy,blast,0.663,blastEasy/BL_10020442.jpg
002,experienced,6,75,blast,hard,blast,0.647,blastHard/BL_899899.jpg
002,experienced,6,76,blast,hard,blast,1.12,blastHard/BL_12930109.jpg
002,experienced,6,77,non-blast,hard,non-blast,0.76,nonBlastHard/MMY_10101282.jpg
002,experienced,6,78,blast,hard,blast,0.654,blastHard/OTH_12288133.jpg
002,experienced,6,79,non-blast,hard,non-blast,1.343,nonBlastHard/16253007354A_009.jpg
002,experienced,6,80,non-blast,easy,non-blast,0.606,nonBlastEasy/ER0944_035.jpg
002,experienced,6,81,blast,hard,blast,0.806,blastHard/BL_3931090.jpg
002,experienced,6,82,non-blast,easy,non-blast,0.563,nonBlastEasy/16258001115A_005.jpg
002,experienced,6,83,non-blast,hard,non-blast,1.123,nonBlastHard/MO_10021198.jpg
002,experienced,6,84,non-blast,easy,non-blast,1.175,nonBlastEasy/MY_9113623.jpg
002,experienced,6,85,non-blast,easy,non-blast,0.71,nonBlastEasy/SNE_10020606.jpg
002,experienced,6,86,non-blast,easy,non-blast,1.104,nonBlastEasy/MO_22576495.jpg
002,experienced,6,87,blast,hard,blast,0.671,blastHard/OTH_23078449.jpg
002,experienced,6,88,blast,hard,blast,1.054,blastHard/BL_2038822.jpg
002,experienced,6,89,blast,hard,blast,0.832,blastHard/VLY_1120674.jpg
002,experienced,6,90,blast,easy,blast,0.701,blastEasy/BL_21930887.jpg
002,experienced,6,91,non-blast,easy,non-blast,0.596,nonBlastEasy/ER0944_075.jpg
002,experienced,6,92,non-blast,hard,non-blast,0.854,nonBlastHard/MMY_9450228.jpg
002,experienced,6,93,non-blast,easy,non-blast,0.781,nonBlastEasy/MO_22576415.jpg
002,experienced,6,94,non-blast,hard,non-blast,1.014,nonBlastHard/HC_9635.jpg
002,experienced,6,95,blast,hard,blast,0.689,blastHard/BL_26626171.jpg
002,experienced,6,96,non-blast,hard,non-blast,0.886,nonBlastHard/16253007354A_027.jpg
002,experienced,6,97,blast,hard,blast,0.7,blastHard/BL_4323236.jpg
002,experienced,6,98,non-blast,hard,non-blast,1.559,nonBlastHard/VLY_17643008.jpg
002,experienced,6,99,blast,hard,blast,2.021,blastHard/BL_4323243.jpg
002,experienced,6,100,blast,easy,blast,0.588,blastEasy/BL_12930032.jpg
006,experienced,1,1,blast,hard,blast,0.581,blastHard/BL_1121539.jpg
006,experienced,1,2,non-blast,hard,non-blast,0.627,nonBlastHard/MO_10021198.jpg
006,experienced,1,3,non-blast,easy,non-blast,0.584,nonBlastEasy/ER0944_038.jpg
006,experienced,1,4,blast,hard,blast,0.568,blastHard/OTH_24746677.jpg
006,experienced,1,5,non-blast,easy,non-blast,0.539,nonBlastEasy/SNE_10020536.jpg
006,experienced,1,6,non-blast,hard,non-blast,0.77,nonBlastHard/OTH_21927765.jpg
006,experienced,1,7,blast,easy,blast,0.604,blastEasy/OTH_21668177.jpg
006,experienced,1,8,non-blast,hard,non-blast,0.981,nonBlastHard/PMY_22823781.jpg
006,experienced,1,9,non-blast,easy,non-blast,0.604,nonBlastEasy/ER0944_025.jpg
006,experienced,1,10,non-blast,hard,non-blast,0.858,nonBlastHard/VLY_4605573.jpg
006,experienced,1,11,non-blast,easy,non-blast,1.432,nonBlastEasy/VLY_23416175.jpg
006,experienced,1,12,non-blast,hard,non-blast,0.841,nonBlastHard/MY_9450552.jpg
006,experienced,1,13,non-blast,easy,non-blast,0.939,nonBlastEasy/PC_6228.jpg
006,experienced,1,14,blast,easy,blast,0.514,blastEasy/BL_26626166.jpg
006,experienced,1,15,blast,easy,blast,0.427,blastEasy/BL_4062116.jpg
006,experienced,1,16,non-blast,hard,blast,0.677,nonBlastHard/USRWBC1_9913295.jpg
006,experienced,1,17,non-blast,hard,non-blast,0.97,nonBlastHard/VLY_2010536.jpg
006,experienced,1,18,blast,hard,blast,0.527,blastHard/BL_2256090.jpg
006,experienced,1,19,non-blast,hard,non-blast,3.439,nonBlastHard/BL_21818137.jpg
006,experienced,1,20,non-blast,easy,non-blast,1.193,nonBlastEasy/MO_22576495.jpg
006,experienced,1,21,blast,easy,blast,0.615,blastEasy/BL_24839843.jpg
006,experienced,1,22,non-blast,easy,non-blast,0.57,nonBlastEasy/ER0944_021.jpg
006,experienced,1,23,non-blast,easy,non-blast,0.607,nonBlastEasy/ER0944_013.jpg
006,experienced,1,24,non-blast,easy,non-blast,0.645,nonBlastEasy/SNE_25598556.jpg
006,experienced,1,25,blast,easy,blast,0.563,blastEasy/BL_10020442.jpg
006,experienced,1,26,blast,easy,blast,0.613,blastEasy/BL_14263216.jpg
006,experienced,1,27,blast,hard,blast,3.51,blastHard/PMY_10101268.jpg
006,experienced,1,28,blast,hard,non-blast,1.548,blastHard/16258001115A_003.jpg
006,experienced,1,29,non-blast,hard,non-blast,0.901,nonBlastHard/22638544_027.jpg
006,experienced,1,30,non-blast,hard,non-blast,1.578,nonBlastHard/LY_14363603.jpg
006,experienced,1,31,non-blast,hard,non-blast,0.947,nonBlastHard/MO_14163691.jpg
006,experienced,1,32,non-blast,easy,non-blast,0.569,nonBlastEasy/ER0944_076.jpg
006,experienced,1,33,blast,easy,blast,0.642,blastEasy/BL_2038856.jpg
006,experienced,1,34,blast,hard,blast,0.556,blastHard/BL_1121527.jpg
006,experienced,1,35,non-blast,easy,non-blast,0.788,nonBlastEasy/16258001115A_078.jpg
006,experienced,1,36,blast,easy,blast,0.664,blastEasy/BL_3931099.jpg
006,experienced,1,37,blast,hard,blast,1.274,blastHard/PLY_6097305.jpg
006,experienced,1,38,blast,easy,blast,1.657,blastEasy/BL_10020457.jpg
006,experienced,1,39,non-blast,hard,non-blast,0.623,nonBlastHard/HC_9634.jpg
006,experienced,1,40,non-blast,hard,non-blast,2.136,nonBlastHard/LY_4536057.jpg
006,experienced,1,41,blast,easy,blast,0.611,blastEasy/OTH_24746620.jpg
006,experienced,1,42,blast,easy,blast,0.579,blastEasy/BL_21930172.jpg
006,experienced,1,43,blast,hard,blast,0.623,blastHard/OTH_21856141.jpg
006,experienced,1,44,blast,easy,blast,0.542,blastEasy/OTH_20188283.jpg
006,experienced,1,45,non-blast,easy,non-blast,0.586,nonBlastEasy/SNE_25598565.jpg
006,experienced,1,46,non-blast,hard,non-blast,0.615,nonBlastHard/OTH_25092124.jpg
006,experienced,1,47,non-blast,easy,non-blast,0.505,nonBlastEasy/LY_2010584.jpg
006,experienced,1,48,blast,easy,blast,0.541,blastEasy/OTH_25263206.jpg
006,experienced,1,49,blast,easy,non-blast,4.19,blastEasy/BLL2.jpg
006,experienced,1,50,non-blast,easy,non-blast,0.597,nonBlastEasy/SNE_23013208.jpg
006,experienced,1,51,non-blast,easy,non-blast,0.623,nonBlastEasy/SNE_23013297.jpg
006,experienced,1,52,blast,hard,blast,3.3,blastHard/USRWBC1_4518050.jpg
006,experienced,1,53,non-blast,easy,non-blast,0.575,nonBlastEasy/ER0944_026.jpg
006,experienced,1,54,non-blast,hard,non-blast,1.351,nonBlastHard/VLY_1120658.jpg
006,experienced,1,55,blast,hard,non-blast,2.336,blastHard/BL_12930109.jpg
006,experienced,1,56,blast,easy,blast,0.637,blastEasy/BL_2256022.jpg
006,experienced,1,57,non-blast,hard,non-blast,0.787,nonBlastHard/LY_4462474.jpg
006,experienced,1,58,non-blast,hard,non-blast,0.721,nonBlastHard/MY_9455177.jpg
006,experienced,1,59,blast,easy,blast,0.959,blastEasy/OTH_12288137.jpg
006,experienced,1,60,non-blast,easy,non-blast,0.572,nonBlastEasy/ER0944_003.jpg
006,experienced,1,61,blast,hard,blast,1.393,blastHard/BL_12930050.jpg
006,experienced,1,62,non-blast,hard,non-blast,1.264,nonBlastHard/22638544_107.jpg
006,experienced,1,63,non-blast,easy,non-blast,0.573,nonBlastEasy/14228000751A_032.jpg
006,experienced,1,64,blast,easy,blast,1.132,blastEasy/AuerRod.jpg
006,experienced,1,65,non-blast,easy,non-blast,0.692,nonBlastEasy/14228000751A_054.jpg
006,experienced,1,66,blast,hard,blast,0.612,blastHard/BL_1200017.jpg
006,experienced,1,67,blast,easy,blast,0.5,blastEasy/BL_21964482.jpg
006,experienced,1,68,blast,hard,non-blast,1.14,blastHard/OTH_21675214.jpg
006,experienced,1,69,blast,hard,blast,0.574,blastHard/OTH_23078430.jpg
006,experienced,1,70,blast,hard,blast,1.218,blastHard/BL_1121444.jpg
006,experienced,1,71,blast,easy,blast,0.551,blastEasy/BL_1200010.jpg
006,experienced,1,72,blast,hard,non-blast,0.651,blastHard/BL_12930089.jpg
006,experienced,1,73,blast,hard,blast,1.306,blastHard/BL_3931115.jpg
006,experienced,1,74,non-blast,easy,non-blast,0.585,nonBlastEasy/ER0944_042.jpg
006,experienced,1,75,blast,easy,blast,0.7,blastEasy/OTH_12288093.jpg
006,experienced,1,76,blast,easy,blast,1.01,blastEasy/BL_24839952.jpg
006,experienced,1,77,non-blast,easy,non-blast,0.596,nonBlastEasy/LY_899979.jpg
006,experienced,1,78,blast,hard,blast,0.728,blastHard/BL_4323243.jpg
006,experienced,1,79,blast,hard,blast,0.651,blastHard/OTH_9719152.jpg
006,experienced,1,80,non-blast,easy,non-blast,0.507,nonBlastEasy/ER0944_045.jpg
006,experienced,1,81,non-blast,hard,non-blast,2.468,nonBlastHard/PC_27623562.jpg
006,experienced,1,82,non-blast,hard,non-blast,1.267,nonBlastHard/VLY_17642950.jpg
006,experienced,1,83,blast,easy,blast,0.603,blastEasy/BL_8544816.jpg
006,experienced,1,84,non-blast,hard,non-blast,1.321,nonBlastHard/OTH_22719199.jpg
006,experienced,1,85,non-blast,hard,non-blast,0.945,nonBlastHard/LY_4526300.jpg
006,experienced,1,86,blast,easy,blast,0.726,blastEasy/BL_12930032.jpg
006,experienced,1,87,blast,hard,blast,0.593,blastHard/BL_21964527.jpg
006,experienced,1,88,non-blast,easy,non-blast,0.588,nonBlastEasy/16258001115A_013.jpg
006,experienced,1,89,blast,hard,blast,0.639,blastHard/OTH_21675275.jpg
006,experienced,1,90,blast,easy,blast,0.537,blastEasy/OTH_12288098.jpg
006,experienced,1,91,non-blast,easy,non-blast,0.602,nonBlastEasy/SNE_374423.jpg
006,experienced,1,92,non-blast,hard,non-blast,0.714,nonBlastHard/VLY_9451032.jpg
006,experienced,1,93,blast,hard,blast,2.366,blastHard/PLY_6097217.jpg
006,experienced,1,94,blast,hard,blast,0.6,blastHard/OTH_12288133.jpg
006,experienced,1,95,blast,hard,blast,1.875,blastHard/BL_10166337.jpg
006,experienced,1,96,blast,easy,blast,0.536,blastEasy/BL_23549452.jpg
006,experienced,1,97,non-blast,hard,non-blast,0.816,nonBlastHard/MY_9458465.jpg
006,experienced,1,98,non-blast,hard,non-blast,0.662,nonBlastHard/MMY_10101248.jpg
006,experienced,1,99,non-blast,easy,non-blast,0.583,nonBlastEasy/LY_1314707.jpg
006,experienced,1,100,blast,hard,blast,0.528,blastHard/OTH_25092098.jpg
006,experienced,4,1,non-blast,hard,non-blast,0.62,nonBlastHard/MMY_9450228.jpg
006,experienced,4,2,blast,hard,blast,0.798,blastHard/OTH_23078394.jpg
006,experienced,4,3,blast,easy,blast,0.581,blastEasy/BL_4062100.jpg
006,experienced,4,4,non-blast,hard,non-blast,0.786,nonBlastHard/16258001115A_076.jpg
006,experienced,4,5,blast,easy,blast,0.807,blastEasy/BL_12930095.jpg
006,experienced,4,6,non-blast,easy,non-blast,0.516,nonBlastEasy/ER0944_012.jpg
006,experienced,4,7,non-blast,easy,non-blast,0.564,nonBlastEasy/ER0944_045.jpg
006,experienced,4,8,blast,easy,blast,0.63,blastEasy/OTH_20188283.jpg
006,experienced,4,9,non-blast,easy,non-blast,0.738,nonBlastEasy/VLY_4420447.jpg
006,experienced,4,10,blast,easy,blast,0.564,blastEasy/BL_10020433.jpg
006,experienced,4,11,blast,easy,blast,0.65,blastEasy/BL_21930890.jpg
006,experienced,4,12,blast,hard,blast,0.628,blastHard/BL_21964458.jpg
006,experienced,4,13,non-blast,easy,non-blast,0.499,nonBlastEasy/16258001115A_017.jpg
006,experienced,4,14,non-blast,easy,non-blast,0.551,nonBlastEasy/ER0944_044.jpg
006,experienced,4,15,blast,hard,blast,0.614,blastHard/BL_11637413.jpg
006,experienced,4,16,non-blast,easy,non-blast,0.527,nonBlastEasy/SNE_23013274.jpg
006,experienced,4,17,non-blast,easy,non-blast,0.839,nonBlastEasy/16258001115A_078.jpg
006,experienced,4,18,non-blast,easy,non-blast,0.449,nonBlastEasy/MO_14163624.jpg
006,experienced,4,19,non-blast,hard,non-blast,0.619,nonBlastHard/VLY_17643042.jpg
006,experienced,4,20,blast,hard,blast,0.618,blastHard/BL_2038838.jpg
006,experienced,4,21,non-blast,easy,non-blast,0.451,nonBlastEasy/SNE_25598556.jpg
006,experienced,4,22,blast,hard,blast,0.868,blastHard/OTH_21856094.jpg
006,experienced,4,23,blast,easy,blast,0.572,blastEasy/VLY_10022863.jpg
006,experienced,4,24,non-blast,hard,non-blast,0.798,nonBlastHard/BL_866501.jpg
006,experienced,4,25,blast,easy,blast,0.529,blastEasy/BL_4062115.jpg
006,experienced,4,26,non-blast,hard,non-blast,0.635,nonBlastHard/VLY_4817070.jpg
006,experienced,4,27,non-blast,easy,non-blast,0.633,nonBlastEasy/ER0944_021.jpg
006,experienced,4,28,blast,hard,blast,0.668,blastHard/BL_2256090.jpg
006,experienced,4,29,blast,easy,blast,0.564,blastEasy/BL_24839843.jpg
006,experienced,4,30,blast,easy,blast,0.473,blastEasy/BL_12930096.jpg
006,experienced,4,31,non-blast,easy,non-blast,0.573,nonBlastEasy/ER0944_035.jpg
006,experienced,4,32,blast,easy,blast,0.739,blastEasy/BL_21964460.jpg
006,experienced,4,33,blast,hard,blast,0.67,blastHard/BL_899899.jpg
006,experienced,4,34,blast,hard,blast,0.603,blastHard/BL_1121510.jpg
006,experienced,4,35,blast,hard,blast,0.984,blastHard/BL_12930089.jpg
006,experienced,4,36,blast,hard,blast,0.734,blastHard/BL_1200017.jpg
006,experienced,4,37,blast,easy,blast,0.528,blastEasy/OTH_12288131.jpg
006,experienced,4,38,blast,easy,blast,0.424,blastEasy/BL_8544816.jpg
006,experienced,4,39,blast,easy,blast,0.576,blastEasy/AuerRod.jpg
006,experienced,4,40,blast,hard,blast,0.611,blastHard/BL_12930109.jpg
006,experienced,4,41,non-blast,hard,non-blast,0.65,nonBlastHard/MY_9113646.jpg
006,experienced,4,42,non-blast,easy,non-blast,0.508,nonBlastEasy/14228000751A_032.jpg
006,experienced,4,43,non-blast,hard,non-blast,1.028,nonBlastHard/LY_14363603.jpg
006,experienced,4,44,non-blast,hard,non-blast,0.574,nonBlastHard/LY_4536057.jpg
006,experienced,4,45,non-blast,easy,non-blast,0.507,nonBlastEasy/LY_8271951.jpg
006,experienced,4,46,blast,easy,blast,0.613,blastEasy/BL_3931099.jpg
006,experienced,4,47,blast,easy,blast,0.467,blastEasy/BL_2256088.jpg
006,experienced,4,48,blast,hard,blast,0.413,blastHard/OTH_9719152.jpg
006,experienced,4,49,non-blast,hard,non-blast,1.311,nonBlastHard/VLY_23416187.jpg
006,experienced,4,50,non-blast,hard,non-blast,0.758,nonBlastHard/VLY_23416215.jpg
006,experienced,4,51,non-blast,easy,non-blast,0.608,nonBlastEasy/ER0944_010.jpg
006,experienced,4,52,non-blast,easy,non-blast,0.631,nonBlastEasy/LY_4598953.jpg
006,experienced,4,53,blast,easy,blast,0.555,blastEasy/BL_21930887.jpg
006,experienced,4,54,blast,easy,blast,0.595,blastEasy/BL_21964525.jpg
006,experienced,4,55,non-blast,hard,non-blast,0.72,nonBlastHard/MO_10021198.jpg
006,experienced,4,56,blast,easy,blast,0.561,blastEasy/OTH_25263205.jpg
006,experienced,4,57,non-blast,hard,blast,0.478,nonBlastHard/LY_24840929.jpg
006,experienced,4,58,blast,hard,blast,0.462,blastHard/BL_3931143.jpg
006,experienced,4,59,blast,hard,blast,0.527,blastHard/VLY_1120674.jpg
006,experienced,4,60,blast,easy,blast,0.48,blastEasy/BL_21930949.jpg
006,experienced,4,61,blast,hard,blast,0.425,blastHard/BL_21964467.jpg
006,experienced,4,62,blast,hard,blast,0.453,blastHard/OTH_21675313.jpg
006,experienced,4,63,blast,hard,blast,0.432,blastHard/BL_1121539.jpg
006,experienced,4,64,blast,easy,blast,0.463,blastEasy/BL_12930163.jpg
006,experienced,4,65,non-blast,hard,non-blast,0.619,nonBlastHard/BL_899866.jpg
006,experienced,4,66,non-blast,easy,non-blast,0.524,nonBlastEasy/ER0944_038.jpg
006,experienced,4,67,blast,easy,blast,0.485,blastEasy/BL_1121496.jpg
006,experienced,4,68,non-blast,hard,non-blast,0.771,nonBlastHard/VLY_17643038.jpg
006,experienced,4,69,blast,hard,blast,0.672,blastHard/BL_26626220.jpg
006,experienced,4,70,blast,hard,blast,0.439,blastHard/OTH_24746677.jpg
006,experienced,4,71,non-blast,easy,non-blast,0.517,nonBlastEasy/14228000751A_054.jpg
006,experienced,4,72,non-blast,hard,non-blast,1.488,nonBlastHard/VLY_4283274.jpg
006,experienced,4,73,blast,hard,blast,0.532,blastHard/BL_26626240.jpg
006,experienced,4,74,non-blast,hard,non-blast,0.579,nonBlastHard/VLY_17643008.jpg
006,experienced,4,75,blast,easy,blast,0.503,blastEasy/OTH_25263206.jpg
006,experienced,4,76,non-blast,hard,non-blast,0.835,nonBlastHard/LY_4537514.jpg
006,experienced,4,77,blast,hard,blast,0.685,blastHard/OTH_9820846.jpg
006,experienced,4,78,non-blast,hard,non-blast,0.553,nonBlastHard/ER0944_019.jpg
006,experienced,4,79,blast,hard,blast,0.531,blastHard/OTH_9820893.jpg
006,experienced,4,80,blast,easy,blast,0.503,blastEasy/BL_23546068.jpg
006,experienced,4,81,non-blast,easy,non-blast,0.548,nonBlastEasy/ER0944_025.jpg
006,experienced,4,82,blast,hard,non-blast,1.879,blastHard/OTH_216308.jpg
006,experienced,4,83,non-blast,easy,non-blast,0.684,nonBlastEasy/LY_10021352.jpg
006,experienced,4,84,non-blast,easy,non-blast,0.575,nonBlastEasy/ER0944_020.jpg
006,experienced,4,85,non-blast,hard,blast,0.678,nonBlastHard/USRWBC1_9913295.jpg
006,experienced,4,86,non-blast,hard,non-blast,3.104,nonBlastHard/VLY_17642950.jpg
006,experienced,4,87,non-blast,easy,non-blast,0.536,nonBlastEasy/16258001115A_015.jpg
006,experienced,4,88,blast,hard,blast,1.293,blastHard/BL_2038845.jpg
006,experienced,4,89,non-blast,hard,blast,0.901,nonBlastHard/VLY_9460918.jpg
006,experienced,4,90,blast,easy,blast,0.517,blastEasy/BL_21930172.jpg
006,experienced,4,91,blast,easy,blast,0.512,blastEasy/BL_7477512.jpg
006,experienced,4,92,non-blast,hard,non-blast,0.578,nonBlastHard/22638544_107.jpg
006,experienced,4,93,non-blast,easy,non-blast,0.556,nonBlastEasy/ER0944_098.jpg
006,experienced,4,94,non-blast,hard,non-blast,0.734,nonBlastHard/VLY_17642964.jpg
006,experienced,4,95,non-blast,easy,non-blast,0.521,nonBlastEasy/ER0944_007.jpg
006,experienced,4,96,non-blast,hard,non-blast,0.555,nonBlastHard/OTH_25092124.jpg
006,experienced,4,97,non-blast,easy,non-blast,0.525,nonBlastEasy/SNE_10020550.jpg
006,experienced,4,98,blast,hard,blast,0.633,blastHard/BL_23546038.jpg
006,experienced,4,99,non-blast,easy,non-blast,0.567,nonBlastEasy/SNE_374450.jpg
006,experienced,4,100,non-blast,hard,non-blast,0.624,nonBlastHard/OTH_21927765.jpg
007,experienced,2,1,non-blast,easy,non-blast,0.641,nonBlastEasy/ER0944_010.jpg
007,experienced,2,2,blast,hard,blast,0.675,blastHard/OTH_9820893.jpg
007,experienced,2,3,non-blast,hard,non-blast,0.828,nonBlastHard/VLY_23416215.jpg
007,experienced,2,4,non-blast,easy,non-blast,1.276,nonBlastEasy/LY_899980.jpg
007,experienced,2,5,non-blast,easy,non-blast,0.636,nonBlastEasy/14228000751A_054.jpg
007,experienced,2,6,non-blast,easy,non-blast,0.629,nonBlastEasy/ER0944_040.jpg
007,experienced,2,7,blast,easy,blast,0.649,blastEasy/BL_10020442.jpg
007,experienced,2,8,blast,hard,non-blast,1.109,blastHard/OTH_24746583.jpg
007,experienced,2,9,non-blast,easy,non-blast,0.591,nonBlastEasy/LY_2010584.jpg
007,experienced,2,10,blast,hard,blast,0.884,blastHard/OTH_24746609.jpg
007,experienced,2,11,non-blast,easy,non-blast,0.63,nonBlastEasy/LY_1314707.jpg
007,experienced,2,12,non-blast,hard,non-blast,0.62,nonBlastHard/VLY_17643008.jpg
007,experienced,2,13,non-blast,easy,non-blast,0.667,nonBlastEasy/PC_6228.jpg
007,experienced,2,14,non-blast,hard,non-blast,1.094,nonBlastHard/VLY_4522566.jpg
007,experienced,2,15,non-blast,easy,non-blast,0.637,nonBlastEasy/SNE_374450.jpg
007,experienced,2,16,non-blast,easy,non-blast,0.953,nonBlastEasy/MO_22576495.jpg
007,experienced,2,17,non-blast,easy,non-blast,0.607,nonBlastEasy/16258001115A_017.jpg
007,experienced,2,18,non-blast,hard,blast,0.88,nonBlastHard/OTH_25092124.jpg
007,experienced,2,19,non-blast,hard,non-blast,0.943,nonBlastHard/HC_9768.jpg
007,experienced,2,20,non-blast,easy,non-blast,0.638,nonBlastEasy/ER0944_003.jpg
007,experienced,2,21,blast,hard,non-blast,0.805,blastHard/BL_1121444.jpg
007,experienced,2,22,non-blast,hard,non-blast,0.762,nonBlastHard/MO_10021198.jpg
007,experienced,2,23,non-blast,hard,non-blast,0.693,nonBlastHard/MY_9455177.jpg
007,experienced,2,24,blast,easy,blast,0.745,blastEasy/BL_2256038.jpg
007,experienced,2,25,blast,hard,blast,0.828,blastHard/PMY_10101268.jpg
007,experienced,2,26,blast,easy,blast,0.681,blastEasy/BL_21930949.jpg
007,experienced,2,27,blast,hard,blast,1.091,blastHard/VLY_18470.jpg
007,experienced,2,28,blast,hard,blast,0.718,blastHard/PLY_6097217.jpg
007,experienced,2,29,blast,easy,blast,0.948,blastEasy/BL_21964482.jpg
007,experienced,2,30,non-blast,easy,non-blast,0.56,nonBlastEasy/ER0944_045.jpg
007,experienced,2,31,non-blast,easy,non-blast,0.565,nonBlastEasy/SNE_10020606.jpg
007,experienced,2,32,blast,hard,blast,0.624,blastHard/OTH_24746609.jpg
007,experienced,2,33,blast,easy,blast,0.715,blastEasy/BL_1121443.jpg
007,experienced,2,34,non-blast,hard,non-blast,0.633,nonBlastHard/MY_9449514.jpg
007,experienced,2,35,non-blast,easy,non-blast,0.541,nonBlastEasy/16258001115A_067.jpg
007,experienced,2,36,blast,easy,blast,0.621,blastEasy/BL_21930894.jpg
007,experienced,2,37,non-blast,hard,blast,0.674,nonBlastHard/BL_11504083.jpg
007,experienced,2,38,non-blast,hard,non-blast,1.137,nonBlastHard/BL_866501.jpg
007,experienced,2,39,non-blast,easy,non-blast,0.73,nonBlastEasy/16258001115A_078.jpg
007,experienced,2,40,non-blast,hard,non-blast,0.882,nonBlastHard/VLY_9446390.jpg
007,experienced,2,41,blast,easy,blast,0.641,blastEasy/BL_24839843.jpg
007,experienced,2,42,blast,hard,blast,1.107,blastHard/OTH_21675214.jpg
007,experienced,2,43,blast,easy,blast,0.897,blastEasy/BL_2256038.jpg
007,experienced,2,44,blast,hard,blast,2.685,blastHard/OTH_23078373.jpg
007,experienced,2,45,non-blast,easy,non-blast,0.614,nonBlastEasy/ER0944_041.jpg
007,experienced,2,46,blast,hard,blast,0.594,blastHard/VLY_1120674.jpg
007,experienced,2,47,blast,hard,blast,0.782,blastHard/BL_21964515.jpg
007,experienced,2,48,non-blast,easy,non-blast,0.711,nonBlastEasy/ER0944_026.jpg
007,experienced,2,49,non-blast,easy,non-blast,0.651,nonBlastEasy/SNE_25395286.jpg
007,experienced,2,50,blast,hard,blast,0.611,blastHard/OTH_25092098.jpg
007,experienced,2,51,blast,easy,blast,0.692,blastEasy/BL_10020393.jpg
007,experienced,2,52,non-blast,hard,non-blast,0.761,nonBlastHard/VLY_22576540.jpg
007,experienced,2,53,blast,hard,non-blast,0.867,blastHard/PMY_10101268.jpg
007,experienced,2,54,non-blast,hard,non-blast,0.985,nonBlastHard/ER0944_008.jpg
007,experienced,2,55,non-blast,hard,non-blast,0.695,nonBlastHard/PC_4237886.jpg
007,experienced,2,56,non-blast,hard,non-blast,0.632,nonBlastHard/VLY_4817070.jpg
007,experienced,2,57,blast,easy,blast,1.006,blastEasy/BL_3931099.jpg
007,experienced,2,58,blast,hard,blast,1.091,blastHard/BL_3931115.jpg
007,experienced,2,59,blast,easy,blast,0.747,blastEasy/BL_21964525.jpg
007,experienced,2,60,blast,easy,blast,0.631,blastEasy/BL_21930875.jpg
007,experienced,2,61,blast,easy,blast,0.499,blastEasy/BL_24839916.jpg
007,experienced,2,62,blast,easy,blast,0.715,blastEasy/BL_24839952.jpg
007,experienced,2,63,non-blast,hard,non-blast,1.351,nonBlastHard/MO_14163691.jpg
007,experienced,2,64,blast,hard,non-blast,1.349,blastHard/OTH_21675313.jpg
007,experienced,2,65,blast,easy,blast,0.669,blastEasy/BL_2256084.jpg
007,experienced,2,66,blast,hard,blast,0.834,blastHard/BL_11637390.jpg
007,experienced,2,67,blast,hard,non-blast,1.811,blastHard/VLY_9310359.jpg
007,experienced,2,68,blast,easy,blast,0.666,blastEasy/BL_24787500.jpg
007,experienced,2,69,non-blast,easy,non-blast,0.613,nonBlastEasy/ER0944_025.jpg
007,experienced,2,70,non-blast,hard,blast,0.837,nonBlastHard/LY_22328223.jpg
007,experienced,2,71,blast,easy,blast,0.661,blastEasy/OTH_23078425.jpg
007,experienced,2,72,non-blast,hard,non-blast,1.536,nonBlastHard/OTH_21675242.jpg
007,experienced,2,73,non-blast,easy,non-blast,0.686,nonBlastEasy/SNE_374423.jpg
007,experienced,2,74,blast,easy,blast,0.693,blastEasy/BL_10020457.jpg
007,experienced,2,75,non-blast,hard,non-blast,1.087,nonBlastHard/16258001115A_076.jpg
007,experienced,2,76,non-blast,easy,non-blast,0.687,nonBlastEasy/EO_10020866.jpg
007,experienced,2,77,blast,hard,blast,0.74,blastHard/BL_12930070.jpg
007,experienced,2,78,blast,hard,blast,0.783,blastHard/BL_2256090.jpg
007,experienced,2,79,non-blast,hard,blast,0.594,nonBlastHard/LY_4537514.jpg
007,experienced,2,80,non-blast,easy,non-blast,0.636,nonBlastEasy/ER0944_013.jpg
007,experienced,2,81,blast,easy,blast,0.628,blastEasy/BL_21964460.jpg
007,experienced,2,82,non-blast,easy,non-blast,0.573,nonBlastEasy/14228000751A_077.jpg
007,experienced,2,83,blast,easy,blast,0.65,blastEasy/BL_23546068.jpg
007,experienced,2,84,blast,hard,blast,0.646,blastHard/OTH_21856141.jpg
007,experienced,2,85,non-blast,hard,non-blast,0.726,nonBlastHard/VLY_4390697.jpg
007,experienced,2,86,blast,hard,non-blast,1.219,blastHard/BL_3931143.jpg
007,experienced,2,87,non-blast,hard,non-blast,0.787,nonBlastHard/VLY_1120658.jpg
007,experienced,2,88,blast,hard,non-blast,1.476,blastHard/BL_21818179.jpg
007,experienced,2,89,non-blast,easy,non-blast,0.664,nonBlastEasy/SNE_10020536.jpg
007,experienced,2,90,blast,hard,blast,0.653,blastHard/BL_21964467.jpg
007,experienced,2,91,blast,hard,blast,0.731,blastHard/OTH_9820893.jpg
007,experienced,2,92,blast,easy,blast,0.713,blastEasy/OTH_23078392.jpg
007,experienced,2,93,blast,easy,blast,0.73,blastEasy/BL_4062104.jpg
007,experienced,2,94,blast,easy,blast,0.69,blastEasy/BL_4062115.jpg
007,experienced,2,95,blast,easy,blast,0.712,blastEasy/OTH_12288098.jpg
007,experienced,2,96,non-blast,hard,non-blast,0.609,nonBlastHard/MMY_10101282.jpg
007,experienced,2,97,non-blast,hard,non-blast,0.665,nonBlastHard/PMY_9295594.jpg
007,experienced,2,98,blast,easy,blast,1.014,blastEasy/BL_1200010.jpg
007,experienced,2,99,non-blast,easy,non-blast,0.583,nonBlastEasy/ER0944_038.jpg
007,experienced,2,100,non-blast,hard,non-blast,0.599,nonBlastHard/PC_27623400.jpg
007,experienced,5,1,non-blast,easy,non-blast,0.689,nonBlastEasy/14228000751A_077.jpg
007,experienced,5,2,non-blast,hard,non-blast,0.904,nonBlastHard/MO_14163691.jpg
007,experienced,5,3,blast,hard,blast,0.749,blastHard/USRWBC1_4518050.jpg
007,experienced,5,4,non-blast,easy,non-blast,0.709,nonBlastEasy/16258001115A_015.jpg
007,experienced,5,5,non-blast,hard,non-blast,0.672,nonBlastHard/PMY_22823781.jpg
007,experienced,5,6,blast,hard,blast,0.696,blastHard/OTH_23078449.jpg
007,experienced,5,7,non-blast,easy,non-blast,0.664,nonBlastEasy/PC_18672.jpg
007,experienced,5,8,non-blast,easy,non-blast,0.644,nonBlastEasy/ER0944_044.jpg
007,experienced,5,9,non-blast,hard,blast,0.946,nonBlastHard/ER0944_019.jpg
007,experienced,5,10,blast,easy,blast,0.692,blastEasy/BL_21930949.jpg
007,experienced,5,11,blast,hard,blast,0.711,blastHard/OTH_12288082.jpg
007,experienced,5,12,blast,hard,blast,0.719,blastHard/BL_7477468.jpg
007,experienced,5,13,blast,easy,blast,1.021,blastEasy/BL_26626166.jpg
007,experienced,5,14,non-blast,hard,non-blast,0.806,nonBlastHard/VLY_4390697.jpg
007,experienced,5,15,blast,easy,blast,0.62,blastEasy/BL_4062116.jpg
007,experienced,5,16,non-blast,hard,non-blast,0.603,nonBlastHard/MY_9450552.jpg
007,experienced,5,17,non-blast,hard,non-blast,0.647,nonBlastHard/VLY_17643008.jpg
007,experienced,5,18,blast,hard,blast,0.935,blastHard/OTH_16204423.jpg
007,experienced,5,19,non-blast,easy,non-blast,0.665,nonBlastEasy/16258001115A_069.jpg
007,experienced,5,20,non-blast,hard,non-blast,0.673,nonBlastHard/PMY_9295594.jpg
007,experienced,5,21,non-blast,hard,non-blast,0.704,nonBlastHard/16253007354A_077.jpg
007,experienced,5,22,blast,hard,blast,0.804,blastHard/OTH_21675214.jpg
007,experienced,5,23,blast,easy,blast,0.743,blastEasy/BL_7477512.jpg
007,experienced,5,24,non-blast,hard,non-blast,0.991,nonBlastHard/LY_4536057.jpg
007,experienced,5,25,blast,easy,blast,0.841,blastEasy/OTH_25263206.jpg
007,experienced,5,26,blast,hard,blast,0.855,blastHard/BL_21818179.jpg
007,experienced,5,27,blast,hard,blast,0.919,blastHard/BL_3931143.jpg
007,experienced,5,28,non-blast,hard,blast,1.012,nonBlastHard/VLY_23416187.jpg
007,experienced,5,29,non-blast,hard,non-blast,0.858,nonBlastHard/16258001115A_036.jpg
007,experienced,5,30,blast,hard,blast,0.777,blastHard/BL_294395.jpg
007,experienced,5,31,non-blast,hard,non-blast,1.074,nonBlastHard/HC_9768.jpg
007,experienced,5,32,blast,hard,blast,0.962,blastHard/VLY_9310359.jpg
007,experienced,5,33,blast,easy,blast,0.714,blastEasy/BL_4062100.jpg
007,experienced,5,34,non-blast,easy,non-blast,0.606,nonBlastEasy/ER0944_035.jpg
007,experienced,5,35,blast,hard,blast,0.624,blastHard/OTH_24746677.jpg
007,experienced,5,36,non-blast,hard,non-blast,0.852,nonBlastHard/VLY_23416215.jpg
007,experienced,5,37,non-blast,easy,non-blast,0.645,nonBlastEasy/ER0944_012.jpg
007,experienced,5,38,blast,easy,blast,0.663,blastEasy/BL_12930032.jpg
007,experienced,5,39,non-blast,easy,non-blast,0.582,nonBlastEasy/LY_8271868.jpg
007,experienced,5,40,blast,easy,blast,0.607,blastEasy/BL_4062104.jpg
007,experienced,5,41,blast,easy,blast,0.636,blastEasy/BL_2256022.jpg
007,experienced,5,42,blast,easy,blast,0.543,blastEasy/BL_7477462.jpg
007,experienced,5,43,non-blast,easy,non-blast,0.576,nonBlastEasy/ER0944_011.jpg
007,experienced,5,44,blast,easy,blast,0.561,blastEasy/BL_4062116.jpg
007,experienced,5,45,blast,hard,blast,0.658,blastHard/BL_21964458.jpg
007,experienced,5,46,non-blast,easy,non-blast,0.578,nonBlastEasy/SNE_10020536.jpg
007,experienced,5,47,non-blast,easy,non-blast,0.581,nonBlastEasy/LY_8271951.jpg
007,experienced,5,48,non-blast,hard,non-blast,0.782,nonBlastHard/OTH_22719199.jpg
007,experienced,5,49,non-blast,easy,non-blast,0.855,nonBlastEasy/LY_10021352.jpg
007,experienced,5,50,non-blast,hard,non-blast,0.956,nonBlastHard/VLY_9451032.jpg
007,experienced,5,51,blast,easy,blast,0.763,blastEasy/BL_10166384.jpg
007,experienced,5,52,blast,easy,blast,0.565,blastEasy/BL_21930890.jpg
007,experienced,5,53,blast,hard,blast,1.576,blastHard/BL_1121510.jpg
007,experienced,5,54,blast,easy,blast,0.641,blastEasy/BL_1200010.jpg
007,experienced,5,55,non-blast,hard,blast,1.022,nonBlastHard/BL_21818137.jpg
007,experienced,5,56,non-blast,hard,non-blast,0.696,nonBlastHard/VLY_17642964.jpg
007,experienced,5,57,blast,easy,blast,0.662,blastEasy/BL_14263216.jpg
007,experienced,5,58,blast,hard,blast,1.206,blastHard/PLY_6097305.jpg
007,experienced,5,59,non-blast,hard,blast,0.889,nonBlastHard/OTH_25092124.jpg
007,experienced,5,60,blast,hard,non-blast,0.676,blastHard/BL_2038845.jpg
007,experienced,5,61,blast,easy,blast,0.587,blastEasy/BL_10020421.jpg
007,experienced,5,62,non-blast,hard,non-blast,0.721,nonBlastHard/MY_9458465.jpg
007,experienced,5,63,blast,hard,non-blast,1.185,blastHard/BL_1121539.jpg
007,experienced,5,64,non-blast,easy,non-blast,0.627,nonBlastEasy/ER0944_025.jpg
007,experienced,5,65,non-blast,easy,non-blast,0.603,nonBlastEasy/ER0944_042.jpg
007,experienced,5,66,non-blast,easy,non-blast,0.473,nonBlastEasy/ER0944_038.jpg
007,experienced,5,67,blast,easy,blast,0.628,blastEasy/BL_21964460.jpg
007,experienced,5,68,non-blast,easy,non-blast,0.612,nonBlastEasy/16258001115A_006.jpg
007,experienced,5,69,non-blast,easy,non-blast,0.534,nonBlastEasy/ER0944_026.jpg
007,experienced,5,70,blast,hard,non-blast,1.301,blastHard/BL_11637413.jpg
007,experienced,5,71,non-blast,easy,non-blast,0.578,nonBlastEasy/LY_899980.jpg
007,experienced,5,72,blast,easy,blast,0.82,blastEasy/BL_21930949.jpg
007,experienced,5,73,non-blast,easy,non-blast,0.609,nonBlastEasy/LY_1314707.jpg
007,experienced,5,74,blast,hard,blast,0.712,blastHard/BL_11637390.jpg
007,experienced,5,75,blast,hard,blast,0.617,blastHard/BL_2256090.jpg
007,experienced,5,76,blast,easy,blast,0.997,blastEasy/BL_23546068.jpg
007,experienced,5,77,non-blast,easy,non-blast,0.573,nonBlastEasy/16258001115A_005.jpg
007,experienced,5,78,blast,easy,blast,0.588,blastEasy/OTH_20188283.jpg
007,experienced,5,79,blast,easy,blast,0.542,blastEasy/OTH_25263205.jpg
007,experienced,5,80,blast,hard,blast,0.717,blastHard/OTH_9820965.jpg
007,experienced,5,81,blast,easy,blast,0.699,blastEasy/BL_1199993.jpg
007,experienced,5,82,non-blast,easy,non-blast,0.586,nonBlastEasy/SNE_25598556.jpg
007,experienced,5,83,non-blast,hard,non-blast,1.307,nonBlastHard/16258001115A_044.jpg
007,experienced,5,84,non-blast,hard,blast,0.973,nonBlastHard/LY_22328223.jpg
007,experienced,5,85,blast,hard,blast,0.782,blastHard/BL_21964515.jpg
007,experienced,5,86,blast,hard,blast,0.778,blastHard/BL_12930089.jpg
007,experienced,5,87,blast,easy,blast,0.83,blastEasy/BL_2256038.jpg
007,experienced,5,88,blast,easy,blast,1.607,blastEasy/BL_4062115.jpg
007,experienced,5,89,non-blast,easy,non-blast,0.676,nonBlastEasy/LY_4598953.jpg
007,experienced,5,90,non-blast,hard,non-blast,0.578,nonBlastHard/LY_4462474.jpg
007,experienced,5,91,non-blast,easy,non-blast,0.565,nonBlastEasy/SNE_25598463.jpg
007,experienced,5,92,blast,hard,blast,0.824,blastHard/BL_2038838.jpg
007,experienced,5,93,non-blast,hard,non-blast,0.653,nonBlastHard/MY_9113646.jpg
007,experienced,5,94,non-blast,hard,non-blast,0.58,nonBlastHard/OTH_21927765.jpg
007,experienced,5,95,non-blast,easy,non-blast,0.504,nonBlastEasy/LY_2010569.jpg
007,experienced,5,96,blast,easy,blast,0.746,blastEasy/OTH_21668177.jpg
007,experienced,5,97,blast,hard,blast,0.685,blastHard/BL_12930070.jpg
007,experienced,5,98,non-blast,easy,non-blast,0.579,nonBlastEasy/HC_9673.jpg
007,experienced,5,99,non-blast,hard,non-blast,0.591,nonBlastHard/MMY_10101248.jpg
007,experienced,5,100,blast,hard,non-blast,0.647,blastHard/BL_1121498.jpg
009,experienced,3,1,blast,hard,blast,0.808,blastHard/OTH_21675275.jpg
009,experienced,3,2,blast,hard,blast,0.61,blastHard/BL_10166337.jpg
009,experienced,3,3,non-blast,hard,non-blast,1.114,nonBlastHard/22638544_107.jpg
009,experienced,3,4,non-blast,hard,non-blast,0.7,nonBlastHard/16258001115A_036.jpg
009,experienced,3,5,blast,hard,blast,1.465,blastHard/16258001115A_003.jpg
009,experienced,3,6,non-blast,hard,non-blast,0.843,nonBlastHard/VLY_17643042.jpg
009,experienced,3,7,non-blast,easy,non-blast,0.619,nonBlastEasy/SNE_10020585.jpg
009,experienced,3,8,non-blast,hard,non-blast,0.682,nonBlastHard/LY_4461956.jpg
009,experienced,3,9,blast,easy,blast,0.761,blastEasy/BL_24839952.jpg
009,experienced,3,10,blast,easy,blast,0.766,blastEasy/BL_1121443.jpg
009,experienced,3,11,blast,easy,blast,0.556,blastEasy/BL_23549452.jpg
009,experienced,3,12,blast,hard,blast,0.627,blastHard/BL_866432.jpg
009,experienced,3,13,non-blast,hard,non-blast,1.967,nonBlastHard/LY_22328223.jpg
009,experienced,3,14,blast,easy,blast,0.746,blastEasy/BL_10020457.jpg
009,experienced,3,15,non-blast,easy,non-blast,0.831,nonBlastEasy/ER0944_013.jpg
009,experienced,3,16,non-blast,hard,non-blast,0.857,nonBlastHard/VLY_17642993.jpg
009,experienced,3,17,non-blast,easy,non-blast,0.659,nonBlastEasy/ER0944_035.jpg
009,experienced,3,18,blast,easy,blast,0.705,blastEasy/OTH_12288093.jpg
009,experienced,3,19,blast,easy,blast,0.751,blastEasy/BL_12930163.jpg
009,experienced,3,20,blast,easy,blast,0.782,blastEasy/BL_21930890.jpg
009,experienced,3,21,blast,hard,blast,1.101,blastHard/BL_1121498.jpg
009,experienced,3,22,non-blast,easy,non-blast,0.708,nonBlastEasy/ER0944_076.jpg
009,experienced,3,23,blast,easy,blast,0.756,blastEasy/OTH_21668177.jpg
009,experienced,3,24,blast,hard,non-blast,1.339,blastHard/BL_26626220.jpg
009,experienced,3,25,blast,easy,blast,0.666,blastEasy/BL_21930875.jpg
009,experienced,3,26,blast,hard,blast,0.598,blastHard/OTH_9820893.jpg
009,experienced,3,27,blast,hard,blast,0.593,blastHard/OTH_9719152.jpg
009,experienced,3,28,blast,hard,blast,0.685,blastHard/BL_866426.jpg
009,experienced,3,29,non-blast,easy,non-blast,0.644,nonBlastEasy/PC_18672.jpg
009,experienced,3,30,blast,hard,blast,1.843,blastHard/OTH_9820965.jpg
009,experienced,3,31,blast,easy,blast,0.707,blastEasy/BL_2256038.jpg
009,experienced,3,32,non-blast,hard,non-blast,0.93,nonBlastHard/VLY_4522566.jpg
009,experienced,3,33,non-blast,hard,non-blast,1.44,nonBlastHard/PC_4237901.jpg
009,experienced,3,34,non-blast,hard,non-blast,2.36,nonBlastHard/16253007354A_077.jpg
009,experienced,3,35,blast,easy,blast,2.101,blastEasy/BL_21930894.jpg
009,experienced,3,36,non-blast,hard,blast,1.547,nonBlastHard/BL_21818137.jpg
009,experienced,3,37,blast,easy,blast,0.903,blastEasy/OTH_25263206.jpg
009,experienced,3,38,blast,hard,blast,1.309,blastHard/BL_12930109.jpg
009,experienced,3,39,non-blast,hard,non-blast,0.749,nonBlastHard/MO_14163691.jpg
009,experienced,3,40,non-blast,easy,non-blast,0.603,nonBlastEasy/ER0944_012.jpg
009,experienced,3,41,non-blast,easy,non-blast,0.592,nonBlastEasy/16258001115A_005.jpg
009,experienced,3,42,blast,hard,blast,0.641,blastHard/OTH_23078430.jpg
009,experienced,3,43,blast,easy,blast,0.809,blastEasy/BL_24839843.jpg
009,experienced,3,44,non-blast,easy,non-blast,0.658,nonBlastEasy/SNE_10020606.jpg
009,experienced,3,45,non-blast,easy,non-blast,0.687,nonBlastEasy/ER0944_010.jpg
009,experienced,3,46,non-blast,easy,non-blast,0.676,nonBlastEasy/ER0944_047.jpg
009,experienced,3,47,blast,easy,blast,1.577,blastEasy/BL_10020442.jpg
009,experienced,3,48,blast,easy,blast,0.688,blastEasy/BL_4062116.jpg
009,experienced,3,49,blast,easy,blast,0.966,blastEasy/BL_1121496.jpg
009,experienced,3,50,blast,hard,blast,0.961,blastHard/BL_2256090.jpg
009,experienced,3,51,non-blast,hard,non-blast,1.093,nonBlastHard/VLY_9451032.jpg
009,experienced,3,52,blast,hard,blast,1.749,blastHard/OTH_12288082.jpg
009,experienced,3,53,non-blast,hard,non-blast,1.303,nonBlastHard/LY_4526300.jpg
009,experienced,3,54,non-blast,hard,non-blast,4.342,nonBlastHard/MY_9455143.jpg
009,experienced,3,55,blast,easy,blast,0.778,blastEasy/BL_12930095.jpg
009,experienced,3,56,non-blast,hard,non-blast,1.656,nonBlastHard/LY_4462474.jpg
009,experienced,3,57,non-blast,easy,non-blast,0.641,nonBlastEasy/HC_9673.jpg
009,experienced,3,58,non-blast,hard,non-blast,0.638,nonBlastHard/OTH_21927751.jpg
009,experienced,3,59,blast,hard,blast,3.121,blastHard/BL_23546133.jpg
009,experienced,3,60,blast,easy,blast,0.812,blastEasy/BL_21964482.jpg
009,experienced,3,61,non-blast,easy,non-blast,0.617,nonBlastEasy/ER0944_015.jpg
009,experienced,3,62,non-blast,easy,non-blast,0.691,nonBlastEasy/ER0944_021.jpg
009,experienced,3,63,non-blast,easy,non-blast,0.624,nonBlastEasy/16258001115A_012.jpg
009,experienced,3,64,non-blast,hard,non-blast,3.574,nonBlastHard/OTH_21675242.jpg
009,experienced,3,65,non-blast,hard,non-blast,0.858,nonBlastHard/MY_9458406.jpg
009,experienced,3,66,non-blast,easy,non-blast,0.636,nonBlastEasy/MO_14163624.jpg
009,experienced,3,67,non-blast,easy,non-blast,0.577,nonBlastEasy/SNE_23013297.jpg
009,experienced,3,68,non-blast,easy,non-blast,0.522,nonBlastEasy/SNE_10020536.jpg
009,experienced,3,69,non-blast,hard,non-blast,1.088,nonBlastHard/HC_9635.jpg
009,experienced,3,70,blast,easy,blast,1.284,blastEasy/OTH_21668256.jpg
009,experienced,3,71,blast,easy,blast,0.631,blastEasy/BL_23546068.jpg
009,experienced,3,72,blast,easy,blast,1.478,blastEasy/BL_3931099.jpg
009,experienced,3,73,non-blast,hard,non-blast,1.897,nonBlastHard/BL_866501.jpg
009,experienced,3,74,non-blast,easy,non-blast,0.632,nonBlastEasy/LY_2010569.jpg
009,experienced,3,75,blast,hard,non-blast,0.717,blastHard/OTH_24746677.jpg
009,experienced,3,76,non-blast,hard,blast,1.118,nonBlastHard/USRWBC1_9913295.jpg
009,experienced,3,77,non-blast,easy,non-blast,0.763,nonBlastEasy/ER0944_046.jpg
009,experienced,3,78,blast,hard,blast,0.725,blastHard/BL_294395.jpg
009,experienced,3,79,non-blast,easy,non-blast,0.643,nonBlastEasy/SNE_25395286.jpg
009,experienced,3,80,non-blast,easy,non-blast,0.761,nonBlastEasy/ER0944_004.jpg
009,experienced,3,81,blast,hard,non-blast,4.411,blastHard/BL_4323243.jpg
009,experienced,3,82,blast,hard,blast,1.059,blastHard/BL_1121494.jpg
009,experienced,3,83,blast,hard,blast,0.781,blastHard/BL_1121527.jpg
009,experienced,3,84,non-blast,easy,non-blast,1.13,nonBlastEasy/LY_2010584.jpg
009,experienced,3,85,non-blast,hard,non-blast,0.804,nonBlastHard/PMY_22823781.jpg
009,experienced,3,86,blast,hard,blast,0.856,blastHard/OTH_21856094.jpg
009,experienced,3,87,blast,easy,blast,2.971,blastEasy/BL_24839916.jpg
009,experienced,3,88,blast,hard,blast,0.659,blastHard/OTH_23078373.jpg
009,experienced,3,89,blast,easy,blast,0.534,blastEasy/OTH_24746572.jpg
009,experienced,3,90,non-blast,easy,non-blast,0.594,nonBlastEasy/16258001115A_017.jpg
009,experienced,3,91,non-blast,hard,non-blast,0.803,nonBlastHard/16258001115A_044.jpg
009,experienced,3,92,blast,easy,blast,0.686,blastEasy/BL_1200010.jpg
009,experienced,3,93,non-blast,hard,non-blast,0.865,nonBlastHard/16258001115A_046.jpg
009,experienced,3,94,blast,hard,blast,0.958,blastHard/BL_26626171.jpg
009,experienced,3,95,blast,easy,NA,-0.001,blastEasy/BL_2256018.jpg
009,experienced,3,96,blast,hard,non-blast,3.208,blastHard/BL_1121510.jpg
009,experienced,3,97,non-blast,easy,non-blast,0.772,nonBlastEasy/LY_4598953.jpg
009,experienced,3,98,non-blast,easy,non-blast,0.732,nonBlastEasy/LY_10021352.jpg
009,experienced,3,99,non-blast,hard,blast,3.847,nonBlastHard/OTH_25092124.jpg
009,experienced,3,100,blast,hard,non-blast,1.645,blastHard/OTH_21675203.jpg
009,experienced,6,1,non-blast,easy,non-blast,0.694,nonBlastEasy/LY_1314707.jpg
009,experienced,6,2,non-blast,hard,non-blast,0.866,nonBlastHard/22638544_027.jpg
009,experienced,6,3,non-blast,easy,non-blast,0.574,nonBlastEasy/ER0944_011.jpg
009,experienced,6,4,blast,easy,blast,0.623,blastEasy/BL_10020442.jpg
009,experienced,6,5,non-blast,easy,non-blast,0.662,nonBlastEasy/ER0944_075.jpg
009,experienced,6,6,blast,hard,blast,0.774,blastHard/BL_866432.jpg
009,experienced,6,7,blast,easy,blast,0.661,blastEasy/BL_1200010.jpg
009,experienced,6,8,blast,hard,blast,0.701,blastHard/OTH_21675275.jpg
009,experienced,6,9,non-blast,hard,blast,0.627,nonBlastHard/VLY_22576540.jpg
009,experienced,6,10,non-blast,hard,blast,1.328,nonBlastHard/VLY_4283274.jpg
009,experienced,6,11,blast,easy,blast,1.438,blastEasy/OTH_21668177.jpg
009,experienced,6,12,non-blast,easy,non-blast,0.543,nonBlastEasy/ER0944_010.jpg
009,experienced,6,13,non-blast,hard,non-blast,1.419,nonBlastHard/VLY_9460918.jpg
009,experienced,6,14,non-blast,hard,non-blast,1.55,nonBlastHard/BL_21818137.jpg
009,experienced,6,15,non-blast,easy,non-blast,0.812,nonBlastEasy/MY_9113623.jpg
009,experienced,6,16,blast,easy,blast,0.663,blastEasy/BL_23549452.jpg
009,experienced,6,17,blast,easy,blast,0.677,blastEasy/BL_12930095.jpg
009,experienced,6,18,blast,hard,blast,0.746,blastHard/BL_1200017.jpg
009,experienced,6,19,non-blast,hard,non-blast,1.387,nonBlastHard/PC_27623400.jpg
009,experienced,6,20,blast,hard,blast,0.695,blastHard/USRWBC1_4518050.jpg
009,experienced,6,21,blast,easy,blast,0.638,blastEasy/BL_7477462.jpg
009,experienced,6,22,blast,easy,blast,0.61,blastEasy/BL_21930949.jpg
009,experienced,6,23,blast,easy,blast,0.623,blastEasy/OTH_12288093.jpg
009,experienced,6,24,blast,hard,blast,0.589,blastHard/OTH_12288133.jpg
009,experienced,6,25,non-blast,easy,non-blast,0.584,nonBlastEasy/SNE_25598556.jpg
009,experienced,6,26,non-blast,hard,blast,1.465,nonBlastHard/LY_4537514.jpg
009,experienced,6,27,blast,hard,blast,0.671,blastHard/BL_1121444.jpg
009,experienced,6,28,non-blast,hard,non-blast,1.147,nonBlastHard/LY_14363603.jpg
009,experienced,6,29,non-blast,easy,non-blast,0.625,nonBlastEasy/ER0944_025.jpg
009,experienced,6,30,blast,easy,blast,0.61,blastEasy/BL_2256038.jpg
009,experienced,6,31,non-blast,easy,non-blast,0.621,nonBlastEasy/ER0944_007.jpg
009,experienced,6,32,blast,hard,non-blast,0.859,blastHard/OTH_21675203.jpg
009,experienced,6,33,non-blast,easy,non-blast,0.599,nonBlastEasy/SNE_10020550.jpg
009,experienced,6,34,blast,hard,blast,0.96,blastHard/OTH_25092098.jpg
009,experienced,6,35,blast,hard,non-blast,1.018,blastHard/BL_26626220.jpg
009,experienced,6,36,blast,hard,blast,0.653,blastHard/BL_21964467.jpg
009,experienced,6,37,blast,hard,blast,0.682,blastHard/BL_3931090.jpg
009,experienced,6,38,non-blast,hard,non-blast,1.417,nonBlastHard/HC_9634.jpg
009,experienced,6,39,non-blast,easy,non-blast,0.714,nonBlastEasy/IEO_25504204.jpg
009,experienced,6,40,blast,easy,blast,0.682,blastEasy/BL_2256018.jpg
009,experienced,6,41,blast,easy,blast,0.795,blastEasy/BL_21930172.jpg
009,experienced,6,42,non-blast,easy,non-blast,0.653,nonBlastEasy/ER0944_098.jpg
009,experienced,6,43,blast,easy,blast,0.799,blastEasy/BL_2038856.jpg
009,experienced,6,44,non-blast,easy,non-blast,0.595,nonBlastEasy/16258001115A_067.jpg
009,experienced,6,45,blast,hard,blast,1.585,blastHard/VLY_18460.jpg
009,experienced,6,46,blast,hard,blast,4.054,blastHard/BL_4323236.jpg
009,experienced,6,47,blast,hard,blast,1.46,blastHard/OTH_21856141.jpg
009,experienced,6,48,blast,easy,blast,0.729,blastEasy/BL_21964460.jpg
009,experienced,6,49,non-blast,easy,non-blast,0.57,nonBlastEasy/SNE_23013274.jpg
009,experienced,6,50,non-blast,easy,non-blast,0.703,nonBlastEasy/SNE_10020606.jpg
009,experienced,6,51,non-blast,hard,non-blast,1.079,nonBlastHard/16253007354A_009.jpg
009,experienced,6,52,blast,easy,blast,0.826,blastEasy/BL_24839952.jpg
009,experienced,6,53,non-blast,hard,non-blast,1.025,nonBlastHard/16253007354A_027.jpg
009,experienced,6,54,blast,easy,blast,0.692,blastEasy/BL_1199993.jpg
009,experienced,6,55,non-blast,easy,non-blast,0.649,nonBlastEasy/ER0944_013.jpg
009,experienced,6,56,blast,easy,blast,0.662,blastEasy/BL_24787500.jpg
009,experienced,6,57,non-blast,easy,non-blast,0.9,nonBlastEasy/VLY_23416175.jpg
009,experienced,6,58,blast,hard,blast,0.772,blastHard/BL_21964515.jpg
009,experienced,6,59,non-blast,easy,non-blast,0.694,nonBlastEasy/SNE_25395286.jpg
009,experienced,6,60,non-blast,hard,non-blast,0.885,nonBlastHard/22638544_107.jpg
009,experienced,6,61,blast,easy,blast,0.732,blastEasy/BL_4062100.jpg
009,experienced,6,62,blast,easy,blast,0.724,blastEasy/OTH_24746620.jpg
009,experienced,6,63,non-blast,easy,non-blast,0.708,nonBlastEasy/SNE_374450.jpg
009,experienced,6,64,non-blast,hard,non-blast,1.685,nonBlastHard/16258001115A_076.jpg
009,experienced,6,65,blast,easy,blast,0.668,blastEasy/OTH_216294.jpg
009,experienced,6,66,blast,hard,blast,0.744,blastHard/OTH_9820846.jpg
009,experienced,6,67,blast,easy,blast,0.626,blastEasy/BL_12930163.jpg
009,experienced,6,68,non-blast,hard,non-blast,0.69,nonBlastHard/MY_9458406.jpg
009,experienced,6,69,non-blast,hard,non-blast,0.556,nonBlastHard/MY_22823793.jpg
009,experienced,6,70,non-blast,easy,non-blast,0.565,nonBlastEasy/SNE_23013208.jpg
009,experienced,6,71,blast,hard,blast,0.713,blastHard/BL_2038822.jpg
009,experienced,6,72,non-blast,easy,non-blast,0.58,nonBlastEasy/14228000751A_032.jpg
009,experienced,6,73,non-blast,hard,non-blast,1.535,nonBlastHard/LY_22328223.jpg
009,experienced,6,74,non-blast,hard,non-blast,0.734,nonBlastHard/LY_4536057.jpg
009,experienced,6,75,blast,hard,blast,0.807,blastHard/BL_21818179.jpg
009,experienced,6,76,non-blast,easy,non-blast,1.018,nonBlastEasy/VLY_4420447.jpg
009,experienced,6,77,non-blast,hard,non-blast,0.86,nonBlastHard/ER0944_008.jpg
009,experienced,6,78,non-blast,hard,non-blast,1.403,nonBlastHard/16253007354A_077.jpg
009,experienced,6,79,blast,easy,blast,0.634,blastEasy/BL_2256022.jpg
009,experienced,6,80,blast,hard,NA,-0.001,blastHard/BL_1121510.jpg
009,experienced,6,81,non-blast,hard,non-blast,0.892,nonBlastHard/PMY_22823781.jpg
009,experienced,6,82,blast,hard,blast,0.787,blastHard/OTH_24746609.jpg
009,experienced,6,83,blast,hard,non-blast,1.187,blastHard/VLY_18470.jpg
009,experienced,6,84,blast,hard,non-blast,0.888,blastHard/BL_4323243.jpg
009,experienced,6,85,blast,easy,blast,0.742,blastEasy/VLY_10022863.jpg
009,experienced,6,86,non-blast,hard,non-blast,0.687,nonBlastHard/MY_9458465.jpg
009,experienced,6,87,non-blast,hard,non-blast,1.103,nonBlastHard/LY_4461956.jpg
009,experienced,6,88,non-blast,easy,non-blast,0.664,nonBlastEasy/ER0944_003.jpg
009,experienced,6,89,blast,hard,blast,1.177,blastHard/BL_1121539.jpg
009,experienced,6,90,non-blast,easy,non-blast,0.632,nonBlastEasy/SNE_23013297.jpg
009,experienced,6,91,non-blast,easy,non-blast,1.112,nonBlastEasy/LY_4598953.jpg
009,experienced,6,92,non-blast,hard,non-blast,0.75,nonBlastHard/OTH_22719199.jpg
009,experienced,6,93,non-blast,hard,non-blast,1.839,nonBlastHard/VLY_17643042.jpg
009,experienced,6,94,blast,hard,blast,0.713,blastHard/PLY_6097217.jpg
009,experienced,6,95,blast,easy,blast,0.664,blastEasy/OTH_9820870.jpg
009,experienced,6,96,non-blast,hard,non-blast,1.872,nonBlastHard/MY_9449514.jpg
009,experienced,6,97,blast,easy,blast,0.806,blastEasy/BL_14263216.jpg
009,experienced,6,98,blast,hard,non-blast,0.96,blastHard/BL_23546038.jpg
009,experienced,6,99,non-blast,easy,non-blast,0.648,nonBlastEasy/SNE_25598565.jpg
009,experienced,6,100,blast,easy,blast,0.666,blastEasy/AuerRod.jpg
012,experienced,3,1,blast,hard,non-blast,2.057,blastHard/16258001115A_003.jpg
012,experienced,3,2,blast,easy,blast,0.609,blastEasy/BL_10020457.jpg
012,experienced,3,3,non-blast,hard,blast,0.873,nonBlastHard/BL_11504083.jpg
012,experienced,3,4,blast,hard,blast,0.799,blastHard/BL_866432.jpg
012,experienced,3,5,non-blast,hard,non-blast,1.663,nonBlastHard/16258001115A_030.jpg
012,experienced,3,6,blast,hard,blast,0.612,blastHard/BL_4062135.jpg
012,experienced,3,7,blast,hard,blast,0.705,blastHard/BL_12930109.jpg
012,experienced,3,8,blast,easy,blast,0.604,blastEasy/BL_2256022.jpg
012,experienced,3,9,blast,easy,blast,0.736,blastEasy/OTH_21668177.jpg
012,experienced,3,10,blast,easy,blast,0.58,blastEasy/BL_4062158.jpg
012,experienced,3,11,non-blast,hard,non-blast,0.63,nonBlastHard/ER0944_008.jpg
012,experienced,3,12,non-blast,easy,non-blast,0.64,nonBlastEasy/ER0944_013.jpg
012,experienced,3,13,blast,hard,blast,0.571,blastHard/VLY_1120674.jpg
012,experienced,3,14,blast,easy,blast,0.496,blastEasy/BL_21930890.jpg
012,experienced,3,15,blast,easy,blast,0.546,blastEasy/BL_4062115.jpg
012,experienced,3,16,non-blast,easy,non-blast,1.692,nonBlastEasy/ER0944_004.jpg
012,experienced,3,17,blast,easy,blast,0.618,blastEasy/BL_1121496.jpg
012,experienced,3,18,blast,easy,blast,0.61,blastEasy/BL_12930095.jpg
012,experienced,3,19,blast,hard,blast,0.526,blastHard/BL_12930050.jpg
012,experienced,3,20,blast,easy,blast,0.58,blastEasy/OTH_24746620.jpg
012,experienced,3,21,non-blast,hard,non-blast,0.762,nonBlastHard/VLY_9446390.jpg
012,experienced,3,22,blast,hard,blast,0.508,blastHard/OTH_9719152.jpg
012,experienced,3,23,non-blast,hard,non-blast,0.735,nonBlastHard/MY_9458465.jpg
012,experienced,3,24,blast,easy,blast,0.539,blastEasy/BL_2256038.jpg
012,experienced,3,25,blast,easy,blast,0.659,blastEasy/BL_21964525.jpg
012,experienced,3,26,non-blast,easy,non-blast,0.578,nonBlastEasy/SNE_23013274.jpg
012,experienced,3,27,blast,hard,blast,0.568,blastHard/BL_1121444.jpg
012,experienced,3,28,non-blast,easy,non-blast,1.34,nonBlastEasy/16258001115A_078.jpg
012,experienced,3,29,non-blast,easy,non-blast,0.659,nonBlastEasy/SNE_374450.jpg
012,experienced,3,30,non-blast,hard,blast,3.133,nonBlastHard/BL_21818137.jpg
012,experienced,3,31,non-blast,easy,non-blast,0.534,nonBlastEasy/SNE_23013297.jpg
012,experienced,3,32,non-blast,easy,non-blast,0.48,nonBlastEasy/SNE_10020536.jpg
012,experienced,3,33,blast,hard,blast,0.611,blastHard/BL_3931143.jpg
012,experienced,3,34,non-blast,easy,non-blast,0.526,nonBlastEasy/16258001115A_006.jpg
012,experienced,3,35,non-blast,easy,non-blast,1.324,nonBlastEasy/ER0944_040.jpg
012,experienced,3,36,blast,hard,blast,0.569,blastHard/BL_1121510.jpg
012,experienced,3,37,blast,hard,blast,0.499,blastHard/BL_23546133.jpg
012,experienced,3,38,blast,hard,blast,0.476,blastHard/OTH_21675203.jpg
012,experienced,3,39,non-blast,hard,non-blast,0.645,nonBlastHard/PMY_22823781.jpg
012,experienced,3,40,blast,hard,blast,0.666,blastHard/BL_10166337.jpg
012,experienced,3,41,blast,hard,non-blast,0.803,blastHard/PLY_6097305.jpg
012,experienced,3,42,non-blast,easy,non-blast,2.854,nonBlastEasy/ER0944_005.jpg
012,experienced,3,43,non-blast,hard,blast,0.739,nonBlastHard/OTH_21675242.jpg
012,experienced,3,44,non-blast,easy,non-blast,0.897,nonBlastEasy/SNE_374423.jpg
012,experienced,3,45,blast,easy,blast,0.69,blastEasy/BL_21964482.jpg
012,experienced,3,46,non-blast,hard,non-blast,0.839,nonBlastHard/PC_27623562.jpg
012,experienced,3,47,blast,hard,blast,0.727,blastHard/OTH_21856141.jpg
012,experienced,3,48,non-blast,hard,non-blast,1.756,nonBlastHard/PC_4237901.jpg
012,experienced,3,49,non-blast,easy,non-blast,0.549,nonBlastEasy/EO_10020866.jpg
012,experienced,3,50,non-blast,hard,blast,2.801,nonBlastHard/PMY_9295594.jpg
012,experienced,3,51,non-blast,easy,non-blast,0.657,nonBlastEasy/MY_9113623.jpg
012,experienced,3,52,blast,hard,blast,0.562,blastHard/BL_1199925.jpg
012,experienced,3,53,blast,easy,blast,0.528,blastEasy/BL_7477450.jpg
012,experienced,3,54,non-blast,easy,non-blast,0.53,nonBlastEasy/SNE_25598463.jpg
012,experienced,3,55,non-blast,easy,non-blast,0.534,nonBlastEasy/16258001115A_017.jpg
012,experienced,3,56,blast,easy,blast,0.624,blastEasy/OTH_23078392.jpg
012,experienced,3,57,non-blast,easy,non-blast,0.514,nonBlastEasy/SNE_25598565.jpg
012,experienced,3,58,non-blast,easy,non-blast,1.074,nonBlastEasy/MO_22576495.jpg
012,experienced,3,59,non-blast,easy,non-blast,0.61,nonBlastEasy/ER0944_045.jpg
012,experienced,3,60,blast,hard,blast,0.569,blastHard/BL_11637413.jpg
012,experienced,3,61,non-blast,easy,non-blast,0.485,nonBlastEasy/SNE_25598556.jpg
012,experienced,3,62,non-blast,hard,blast,0.523,nonBlastHard/LY_24840929.jpg
012,experienced,3,63,blast,hard,blast,0.604,blastHard/BL_2038822.jpg
012,experienced,3,64,non-blast,hard,blast,0.975,nonBlastHard/LY_22328223.jpg
012,experienced,3,65,non-blast,hard,non-blast,2.284,nonBlastHard/MY_22823793.jpg
012,experienced,3,66,blast,hard,blast,0.715,blastHard/VLY_18470.jpg
012,experienced,3,67,non-blast,hard,blast,0.831,nonBlastHard/MMY_10101248.jpg
012,experienced,3,68,non-blast,easy,non-blast,0.655,nonBlastEasy/ER0944_003.jpg
012,experienced,3,69,blast,easy,blast,0.532,blastEasy/BL_14263216.jpg
012,experienced,3,70,blast,easy,blast,0.456,blastEasy/OTH_24746572.jpg
012,experienced,3,71,blast,easy,blast,0.539,blastEasy/BL_4062147.jpg
012,experienced,3,72,non-blast,easy,non-blast,0.523,nonBlastEasy/ER0944_015.jpg
012,experienced,3,73,non-blast,hard,non-blast,1.796,nonBlastHard/VLY_4283274.jpg
012,experienced,3,74,blast,easy,blast,0.508,blastEasy/BL_7477462.jpg
012,experienced,3,75,blast,easy,blast,0.497,blastEasy/BL_4062104.jpg
012,experienced,3,76,non-blast,hard,non-blast,1.771,nonBlastHard/MY_9458406.jpg
012,experienced,3,77,non-blast,hard,non-blast,0.795,nonBlastHard/16253007354A_077.jpg
012,experienced,3,78,blast,easy,blast,0.711,blastEasy/BL_12930096.jpg
012,experienced,3,79,blast,hard,blast,0.545,blastHard/BL_12930089.jpg
012,experienced,3,80,blast,easy,blast,0.441,blastEasy/BL_1199993.jpg
012,experienced,3,81,non-blast,easy,non-blast,0.779,nonBlastEasy/LY_899979.jpg
012,experienced,3,82,blast,hard,blast,0.632,blastHard/VLY_9310359.jpg
012,experienced,3,83,blast,easy,blast,0.567,blastEasy/BL_10020433.jpg
012,experienced,3,84,non-blast,hard,non-blast,0.702,nonBlastHard/LY_4537514.jpg
012,experienced,3,85,blast,hard,blast,0.654,blastHard/BL_1121527.jpg
012,experienced,3,86,non-blast,hard,blast,0.978,nonBlastHard/LY_4461956.jpg
012,experienced,3,87,non-blast,hard,non-blast,0.715,nonBlastHard/VLY_9451032.jpg
012,experienced,3,88,blast,easy,blast,0.599,blastEasy/OTH_12288098.jpg
012,experienced,3,89,non-blast,easy,non-blast,0.564,nonBlastEasy/16258001115A_012.jpg
012,experienced,3,90,non-blast,hard,non-blast,2.225,nonBlastHard/VLY_22576540.jpg
012,experienced,3,91,blast,hard,blast,0.709,blastHard/USRWBC1_4518050.jpg
012,experienced,3,92,non-blast,easy,non-blast,0.516,nonBlastEasy/SNE_23013314.jpg
012,experienced,3,93,non-blast,hard,non-blast,1.736,nonBlastHard/VLY_23416187.jpg
012,experienced,3,94,blast,easy,blast,0.502,blastEasy/BL_21930949.jpg
012,experienced,3,95,blast,hard,blast,0.892,blastHard/PMY_10101268.jpg
012,experienced,3,96,non-blast,hard,non-blast,0.883,nonBlastHard/VLY_17642964.jpg
012,experienced,3,97,blast,easy,blast,0.49,blastEasy/BL_2256084.jpg
012,experienced,3,98,blast,hard,blast,0.555,blastHard/BL_21964467.jpg
012,experienced,3,99,non-blast,easy,non-blast,0.508,nonBlastEasy/SNE_10020550.jpg
012,experienced,3,100,non-blast,hard,non-blast,1.22,nonBlastHard/MY_9455177.jpg
012,experienced,6,1,non-blast,easy,non-blast,0.663,nonBlastEasy/16258001115A_015.jpg
012,experienced,6,2,non-blast,easy,non-blast,0.468,nonBlastEasy/SNE_25598565.jpg
012,experienced,6,3,non-blast,easy,non-blast,0.473,nonBlastEasy/SNE_25598463.jpg
012,experienced,6,4,non-blast,hard,non-blast,0.431,nonBlastHard/MMY_10101248.jpg
012,experienced,6,5,non-blast,easy,non-blast,0.649,nonBlastEasy/ER0944_026.jpg
012,experienced,6,6,non-blast,hard,non-blast,0.844,nonBlastHard/LY_4526300.jpg
012,experienced,6,7,blast,hard,blast,0.507,blastHard/BL_2038845.jpg
012,experienced,6,8,blast,easy,blast,0.609,blastEasy/OTH_21668256.jpg
012,experienced,6,9,non-blast,easy,non-blast,0.511,nonBlastEasy/SNE_25598556.jpg
012,experienced,6,10,non-blast,easy,non-blast,0.666,nonBlastEasy/VLY_4420447.jpg
012,experienced,6,11,blast,hard,blast,0.781,blastHard/BL_4323236.jpg
012,experienced,6,12,non-blast,hard,blast,0.8,nonBlastHard/MY_9450552.jpg
012,experienced,6,13,blast,hard,blast,0.79,blastHard/OTH_9820854.jpg
012,experienced,6,14,non-blast,hard,non-blast,0.647,nonBlastHard/OTH_22719199.jpg
012,experienced,6,15,non-blast,hard,non-blast,1.942,nonBlastHard/HC_9768.jpg
012,experienced,6,16,non-blast,easy,non-blast,2.041,nonBlastEasy/LY_1314707.jpg
012,experienced,6,17,non-blast,hard,blast,1.082,nonBlastHard/PC_27623400.jpg
012,experienced,6,18,non-blast,easy,non-blast,0.742,nonBlastEasy/LY_899979.jpg
012,experienced,6,19,non-blast,easy,non-blast,1.356,nonBlastEasy/ER0944_004.jpg
012,experienced,6,20,blast,easy,blast,0.62,blastEasy/BL_21964460.jpg
012,experienced,6,21,blast,easy,blast,0.59,blastEasy/BL_10020421.jpg
012,experienced,6,22,blast,easy,blast,0.571,blastEasy/BL_2256018.jpg
012,experienced,6,23,non-blast,hard,blast,0.742,nonBlastHard/LY_22328223.jpg
012,experienced,6,24,blast,easy,blast,0.466,blastEasy/BLL2.jpg
012,experienced,6,25,blast,easy,blast,1.096,blastEasy/OTH_23078425.jpg
012,experienced,6,26,blast,easy,blast,0.636,blastEasy/BL_1199993.jpg
012,experienced,6,27,non-blast,easy,non-blast,0.615,nonBlastEasy/SNE_25395286.jpg
012,experienced,6,28,blast,hard,blast,0.665,blastHard/OTH_9820893.jpg
012,experienced,6,29,non-blast,easy,non-blast,0.522,nonBlastEasy/EO_10020866.jpg
012,experienced,6,30,blast,easy,blast,0.607,blastEasy/BL_23546068.jpg
012,experienced,6,31,non-blast,easy,non-blast,1.578,nonBlastEasy/ER0944_076.jpg
012,experienced,6,32,non-blast,hard,blast,2.277,nonBlastHard/LY_4536057.jpg
012,experienced,6,33,blast,easy,blast,0.589,blastEasy/BL_21930887.jpg
012,experienced,6,34,non-blast,hard,blast,0.617,nonBlastHard/BL_899866.jpg
012,experienced,6,35,blast,easy,blast,0.5,blastEasy/BL_4062132.jpg
012,experienced,6,36,non-blast,hard,blast,0.839,nonBlastHard/MY_9449514.jpg
012,experienced,6,37,blast,hard,blast,0.534,blastHard/BL_12930109.jpg
012,experienced,6,38,non-blast,hard,non-blast,1.402,nonBlastHard/VLY_17643008.jpg
012,experienced,6,39,non-blast,hard,non-blast,1.215,nonBlastHard/PMY_22823781.jpg
012,experienced,6,40,non-blast,hard,non-blast,0.735,nonBlastHard/MY_9455143.jpg
012,experienced,6,41,non-blast,easy,non-blast,0.654,nonBlastEasy/16258001115A_017.jpg
012,experienced,6,42,non-blast,easy,non-blast,0.49,nonBlastEasy/ER0944_098.jpg
012,experienced,6,43,blast,hard,non-blast,1.426,blastHard/BL_2038822.jpg
012,experienced,6,44,blast,hard,blast,0.68,blastHard/VLY_9310359.jpg
012,experienced,6,45,blast,hard,blast,0.641,blastHard/BL_4062135.jpg
012,experienced,6,46,non-blast,easy,non-blast,0.685,nonBlastEasy/ER0944_015.jpg
012,experienced,6,47,non-blast,hard,blast,0.566,nonBlastHard/16258001115A_076.jpg
012,experienced,6,48,blast,easy,blast,0.579,blastEasy/BL_4323220.jpg
012,experienced,6,49,non-blast,easy,blast,2.633,nonBlastEasy/LY_10021359.jpg
012,experienced,6,50,blast,hard,blast,0.746,blastHard/PMY_10101268.jpg
012,experienced,6,51,blast,hard,blast,0.753,blastHard/BL_1121539.jpg
012,experienced,6,52,blast,hard,blast,0.763,blastHard/BL_1121498.jpg
012,experienced,6,53,blast,easy,blast,0.77,blastEasy/BL_21930172.jpg
012,experienced,6,54,blast,hard,blast,0.594,blastHard/OTH_23078373.jpg
012,experienced,6,55,blast,hard,blast,0.541,blastHard/OTH_23078430.jpg
012,experienced,6,56,non-blast,hard,non-blast,0.655,nonBlastHard/MO_14163691.jpg
012,experienced,6,57,blast,hard,blast,0.495,blastHard/BL_1121527.jpg
012,experienced,6,58,blast,hard,blast,0.552,blastHard/BL_866426.jpg
012,experienced,6,59,blast,easy,blast,0.457,blastEasy/BL_7477462.jpg
012,experienced,6,60,non-blast,easy,non-blast,0.888,nonBlastEasy/VLY_23416175.jpg
012,experienced,6,61,blast,hard,blast,0.723,blastHard/BL_26626220.jpg
012,experienced,6,62,blast,hard,blast,0.682,blastHard/BL_294395.jpg
012,experienced,6,63,non-blast,easy,non-blast,0.577,nonBlastEasy/MO_14163624.jpg
012,experienced,6,64,blast,easy,blast,0.578,blastEasy/BL_14263216.jpg
012,experienced,6,65,non-blast,easy,non-blast,0.676,nonBlastEasy/ER0944_040.jpg
012,experienced,6,66,non-blast,hard,non-blast,0.93,nonBlastHard/VLY_17642979.jpg
012,experienced,6,67,non-blast,hard,non-blast,2.31,nonBlastHard/USRWBC1_9913295.jpg
012,experienced,6,68,non-blast,easy,non-blast,0.569,nonBlastEasy/SNE_23013208.jpg
012,experienced,6,69,blast,hard,blast,0.717,blastHard/OTH_21675275.jpg
012,experienced,6,70,blast,easy,blast,0.542,blastEasy/BL_2256088.jpg
012,experienced,6,71,blast,hard,blast,0.898,blastHard/OTH_16204423.jpg
012,experienced,6,72,blast,easy,blast,0.451,blastEasy/BL_21930949.jpg
012,experienced,6,73,blast,hard,blast,0.563,blastHard/VLY_1120674.jpg
012,experienced,6,74,blast,hard,non-blast,0.967,blastHard/PLY_6097217.jpg
012,experienced,6,75,non-blast,easy,non-blast,0.687,nonBlastEasy/LY_10021352.jpg
012,experienced,6,76,non-blast,easy,non-blast,0.595,nonBlastEasy/SNE_23013274.jpg
012,experienced,6,77,blast,easy,blast,0.626,blastEasy/OTH_9820870.jpg
012,experienced,6,78,blast,easy,blast,0.614,blastEasy/BL_24839952.jpg
012,experienced,6,79,non-blast,hard,non-blast,1.375,nonBlastHard/ER0944_019.jpg
012,experienced,6,80,non-blast,easy,non-blast,0.614,nonBlastEasy/ER0944_005.jpg
012,experienced,6,81,non-blast,easy,non-blast,0.644,nonBlastEasy/LY_8271868.jpg
012,experienced,6,82,non-blast,hard,blast,0.99,nonBlastHard/16258001115A_046.jpg
012,experienced,6,83,blast,hard,blast,0.568,blastHard/BL_11637413.jpg
012,experienced,6,84,non-blast,easy,non-blast,0.641,nonBlastEasy/ER0944_003.jpg
012,experienced,6,85,blast,easy,blast,0.488,blastEasy/BL_10020442.jpg
012,experienced,6,86,non-blast,hard,non-blast,0.721,nonBlastHard/16253007354A_077.jpg
012,experienced,6,87,non-blast,hard,non-blast,1.671,nonBlastHard/ER0944_008.jpg
012,experienced,6,88,blast,hard,blast,0.564,blastHard/OTH_9719152.jpg
012,experienced,6,89,non-blast,hard,blast,1.009,nonBlastHard/MMY_10101282.jpg
012,experienced,6,90,blast,easy,blast,0.522,blastEasy/BL_24839843.jpg
012,experienced,6,91,blast,hard,blast,0.587,blastHard/OTH_23078449.jpg
012,experienced,6,92,blast,hard,blast,0.573,blastHard/BL_12930070.jpg
012,experienced,6,93,blast,easy,blast,0.579,blastEasy/BL_10020393.jpg
012,experienced,6,94,blast,easy,blast,0.658,blastEasy/OTH_12288137.jpg
012,experienced,6,95,non-blast,hard,non-blast,0.812,nonBlastHard/16253007354A_009.jpg
012,experienced,6,96,non-blast,hard,non-blast,0.922,nonBlastHard/VLY_9446390.jpg
012,experienced,6,97,blast,easy,blast,0.629,blastEasy/BL_21930890.jpg
012,experienced,6,98,blast,easy,blast,0.595,blastEasy/OTH_24746572.jpg
012,experienced,6,99,non-blast,hard,blast,0.999,nonBlastHard/OTH_25092124.jpg
012,experienced,6,100,blast,easy,blast,0.543,blastEasy/BL_1121496.jpg
014,experienced,3,1,blast,easy,blast,1.479,blastEasy/BL_7477450.jpg
014,experienced,3,2,blast,hard,blast,0.627,blastHard/VLY_1120674.jpg
014,experienced,3,3,non-blast,hard,non-blast,1.375,nonBlastHard/22638544_107.jpg
014,experienced,3,4,non-blast,easy,blast,0.689,nonBlastEasy/ER0944_035.jpg
014,experienced,3,5,non-blast,easy,non-blast,0.874,nonBlastEasy/VLY_23416175.jpg
014,experienced,3,6,blast,easy,blast,0.549,blastEasy/OTH_216294.jpg
014,experienced,3,7,non-blast,hard,non-blast,1.098,nonBlastHard/VLY_4605573.jpg
014,experienced,3,8,non-blast,hard,blast,2.609,nonBlastHard/VLY_17642950.jpg
014,experienced,3,9,non-blast,easy,non-blast,1.683,nonBlastEasy/16258001115A_078.jpg
014,experienced,3,10,blast,hard,blast,0.644,blastHard/VLY_18470.jpg
014,experienced,3,11,blast,easy,blast,0.556,blastEasy/OTH_12288131.jpg
014,experienced,3,12,blast,easy,blast,0.551,blastEasy/BL_10020393.jpg
014,experienced,3,13,non-blast,hard,non-blast,0.669,nonBlastHard/ER0944_019.jpg
014,experienced,3,14,blast,easy,blast,0.629,blastEasy/OTH_9820870.jpg
014,experienced,3,15,non-blast,easy,non-blast,0.866,nonBlastEasy/ER0944_020.jpg
014,experienced,3,16,blast,easy,blast,0.673,blastEasy/OTH_12288083.jpg
014,experienced,3,17,non-blast,easy,non-blast,1.033,nonBlastEasy/LY_2010584.jpg
014,experienced,3,18,non-blast,hard,blast,1.061,nonBlastHard/16258001115A_046.jpg
014,experienced,3,19,non-blast,easy,non-blast,0.915,nonBlastEasy/LY_899979.jpg
014,experienced,3,20,non-blast,hard,non-blast,1.199,nonBlastHard/MY_9458465.jpg
014,experienced,3,21,blast,hard,blast,0.771,blastHard/BL_24839872.jpg
014,experienced,3,22,blast,hard,blast,0.619,blastHard/OTH_9719152.jpg
014,experienced,3,23,non-blast,hard,non-blast,0.804,nonBlastHard/PMY_9295594.jpg
014,experienced,3,24,non-blast,easy,non-blast,0.87,nonBlastEasy/ER0944_044.jpg
014,experienced,3,25,non-blast,hard,non-blast,1.002,nonBlastHard/VLY_4283274.jpg
014,experienced,3,26,non-blast,hard,non-blast,1.073,nonBlastHard/VLY_4390697.jpg
014,experienced,3,27,blast,easy,blast,0.566,blastEasy/BL_4062158.jpg
014,experienced,3,28,non-blast,hard,non-blast,0.573,nonBlastHard/MMY_10101248.jpg
014,experienced,3,29,blast,hard,blast,1.362,blastHard/16258001115A_003.jpg
014,experienced,3,30,blast,hard,blast,1.405,blastHard/BL_1121494.jpg
014,experienced,3,31,non-blast,hard,blast,1.671,nonBlastHard/VLY_17643038.jpg
014,experienced,3,32,non-blast,hard,blast,0.644,nonBlastHard/16253007354A_077.jpg
014,experienced,3,33,blast,hard,blast,0.631,blastHard/OTH_21856094.jpg
014,experienced,3,34,blast,hard,non-blast,0.696,blastHard/BL_4323243.jpg
014,experienced,3,35,non-blast,easy,non-blast,0.731,nonBlastEasy/ER0944_025.jpg
014,experienced,3,36,non-blast,easy,non-blast,0.585,nonBlastEasy/ER0944_075.jpg
014,experienced,3,37,blast,hard,blast,0.594,blastHard/BL_21964467.jpg
014,experienced,3,38,non-blast,easy,non-blast,0.555,nonBlastEasy/SNE_25598565.jpg
014,experienced,3,39,non-blast,hard,non-blast,0.941,nonBlastHard/16258001115A_036.jpg
014,experienced,3,40,blast,hard,blast,0.586,blastHard/OTH_24746677.jpg
014,experienced,3,41,blast,easy,blast,0.696,blastEasy/BL_10020442.jpg
014,experienced,3,42,non-blast,easy,non-blast,0.506,nonBlastEasy/SNE_10020585.jpg
014,experienced,3,43,blast,easy,blast,0.656,blastEasy/OTH_9719205.jpg
014,experienced,3,44,blast,hard,blast,1.287,blastHard/BL_3931143.jpg
014,experienced,3,45,non-blast,easy,non-blast,0.508,nonBlastEasy/EO_10020866.jpg
014,experienced,3,46,non-blast,hard,non-blast,0.809,nonBlastHard/MMY_9450228.jpg
014,experienced,3,47,blast,hard,blast,0.638,blastHard/OTH_23078449.jpg
014,experienced,3,48,blast,easy,blast,0.663,blastEasy/BL_4062116.jpg
014,experienced,3,49,blast,easy,blast,0.708,blastEasy/BL_1199993.jpg
014,experienced,3,50,blast,hard,blast,0.919,blastHard/BL_4062097.jpg
014,experienced,3,51,non-blast,easy,non-blast,0.432,nonBlastEasy/16258001115A_005.jpg
014,experienced,3,52,non-blast,easy,non-blast,0.926,nonBlastEasy/LY_899980.jpg
014,experienced,3,53,non-blast,easy,non-blast,0.634,nonBlastEasy/SNE_10020536.jpg
014,experienced,3,54,non-blast,hard,blast,1.175,nonBlastHard/PC_27623400.jpg
014,experienced,3,55,blast,easy,blast,0.648,blastEasy/BL_12930095.jpg
014,experienced,3,56,blast,hard,blast,0.55,blastHard/BL_3931090.jpg
014,experienced,3,57,blast,hard,blast,1.725,blastHard/BL_26626240.jpg
014,experienced,3,58,non-blast,hard,non-blast,1.718,nonBlastHard/BL_866501.jpg
014,experienced,3,59,blast,hard,blast,1.155,blastHard/BL_1121498.jpg
014,experienced,3,60,blast,easy,blast,0.544,blastEasy/BL_21930890.jpg
014,experienced,3,61,blast,easy,blast,0.614,blastEasy/BL_4062100.jpg
014,experienced,3,62,non-blast,hard,non-blast,0.762,nonBlastHard/MY_9458406.jpg
014,experienced,3,63,non-blast,hard,blast,1.113,nonBlastHard/VLY_22576540.jpg
014,experienced,3,64,non-blast,easy,non-blast,0.535,nonBlastEasy/SNE_23013208.jpg
014,experienced,3,65,blast,hard,blast,0.835,blastHard/BL_866426.jpg
014,experienced,3,66,blast,easy,blast,0.554,blastEasy/BL_12930096.jpg
014,experienced,3,67,blast,hard,blast,0.554,blastHard/BL_7477468.jpg
014,experienced,3,68,blast,hard,blast,0.579,blastHard/OTH_21856141.jpg
014,experienced,3,69,non-blast,easy,non-blast,0.802,nonBlastEasy/MY_9113623.jpg
014,experienced,3,70,non-blast,hard,non-blast,0.789,nonBlastHard/MY_9449514.jpg
014,experienced,3,71,blast,hard,blast,0.736,blastHard/BL_2038838.jpg
014,experienced,3,72,blast,hard,blast,0.611,blastHard/BL_669395.jpg
014,experienced,3,73,non-blast,hard,blast,0.569,nonBlastHard/LY_4461956.jpg
014,experienced,3,74,non-blast,easy,non-blast,0.681,nonBlastEasy/ER0944_047.jpg
014,experienced,3,75,blast,easy,blast,0.61,blastEasy/BL_12930163.jpg
014,experienced,3,76,blast,easy,blast,0.528,blastEasy/BL_21964482.jpg
014,experienced,3,77,blast,hard,blast,0.562,blastHard/OTH_23078373.jpg
014,experienced,3,78,blast,easy,blast,0.526,blastEasy/BL_21930894.jpg
014,experienced,3,79,non-blast,easy,non-blast,0.626,nonBlastEasy/PC_6228.jpg
014,experienced,3,80,blast,easy,blast,0.528,blastEasy/BL_21930172.jpg
014,experienced,3,81,blast,easy,blast,0.877,blastEasy/BL_2038856.jpg
014,experienced,3,82,non-blast,hard,non-blast,0.574,nonBlastHard/16258001115A_030.jpg
014,experienced,3,83,non-blast,easy,non-blast,0.655,nonBlastEasy/LY_8271951.jpg
014,experienced,3,84,blast,easy,blast,0.521,blastEasy/BL_4062132.jpg
014,experienced,3,85,blast,easy,blast,0.544,blastEasy/OTH_25263206.jpg
014,experienced,3,86,blast,hard,blast,0.582,blastHard/BL_4062135.jpg
014,experienced,3,87,non-blast,easy,non-blast,0.547,nonBlastEasy/ER0944_038.jpg
014,experienced,3,88,non-blast,hard,non-blast,0.741,nonBlastHard/MMY_10101282.jpg
014,experienced,3,89,non-blast,easy,non-blast,0.665,nonBlastEasy/ER0944_026.jpg
014,experienced,3,90,blast,hard,blast,0.58,blastHard/BL_23546133.jpg
014,experienced,3,91,non-blast,hard,non-blast,0.752,nonBlastHard/LY_14363603.jpg
014,experienced,3,92,non-blast,easy,non-blast,0.651,nonBlastEasy/OTH_21927760.jpg
014,experienced,3,93,blast,easy,blast,0.559,blastEasy/BL_2256022.jpg
014,experienced,3,94,non-blast,hard,blast,0.623,nonBlastHard/LY_4537514.jpg
014,experienced,3,95,non-blast,easy,non-blast,0.677,nonBlastEasy/LY_1314707.jpg
014,experienced,3,96,blast,easy,blast,0.518,blastEasy/BL_4062150.jpg
014,experienced,3,97,blast,hard,blast,0.849,blastHard/BL_21964515.jpg
014,experienced,3,98,non-blast,hard,non-blast,0.625,nonBlastHard/HC_9634.jpg
014,experienced,3,99,non-blast,easy,non-blast,0.684,nonBlastEasy/SNE_25395286.jpg
014,experienced,3,100,blast,easy,blast,0.581,blastEasy/BL_24839916.jpg
014,experienced,6,1,non-blast,easy,non-blast,0.65,nonBlastEasy/SNE_23013274.jpg
014,experienced,6,2,non-blast,hard,non-blast,1.352,nonBlastHard/LY_4462474.jpg
014,experienced,6,3,non-blast,easy,non-blast,0.916,nonBlastEasy/LY_10021352.jpg
014,experienced,6,4,blast,easy,blast,0.573,blastEasy/BL_12930095.jpg
014,experienced,6,5,blast,hard,blast,0.636,blastHard/BL_2038845.jpg
014,experienced,6,6,non-blast,hard,non-blast,0.867,nonBlastHard/16253007354A_009.jpg
014,experienced,6,7,non-blast,hard,non-blast,0.964,nonBlastHard/VLY_17642964.jpg
014,experienced,6,8,blast,easy,blast,0.544,blastEasy/OTH_12288131.jpg
014,experienced,6,9,non-blast,easy,non-blast,0.586,nonBlastEasy/SNE_25395286.jpg
014,experienced,6,10,non-blast,easy,non-blast,0.757,nonBlastEasy/ER0944_020.jpg
014,experienced,6,11,blast,hard,blast,0.544,blastHard/OTH_9820846.jpg
014,experienced,6,12,blast,hard,blast,1.051,blastHard/BL_26626171.jpg
014,experienced,6,13,non-blast,hard,non-blast,0.833,nonBlastHard/MY_9113646.jpg
014,experienced,6,14,non-blast,hard,non-blast,0.962,nonBlastHard/VLY_4522566.jpg
014,experienced,6,15,non-blast,easy,non-blast,0.639,nonBlastEasy/SNE_23013314.jpg
014,experienced,6,16,non-blast,hard,non-blast,0.827,nonBlastHard/VLY_2010536.jpg
014,experienced,6,17,blast,easy,blast,0.675,blastEasy/AuerRod.jpg
014,experienced,6,18,blast,hard,blast,0.757,blastHard/BL_12930109.jpg
014,experienced,6,19,non-blast,easy,non-blast,0.924,nonBlastEasy/16258001115A_069.jpg
014,experienced,6,20,non-blast,easy,non-blast,0.657,nonBlastEasy/14228000751A_054.jpg
014,experienced,6,21,non-blast,hard,blast,1.441,nonBlastHard/VLY_4817070.jpg
014,experienced,6,22,blast,hard,blast,0.566,blastHard/VLY_18460.jpg
014,experienced,6,23,non-blast,hard,non-blast,0.724,nonBlastHard/PMY_22823781.jpg
014,experienced,6,24,non-blast,easy,non-blast,0.902,nonBlastEasy/ER0944_021.jpg
014,experienced,6,25,blast,hard,non-blast,1.101,blastHard/OTH_12288082.jpg
014,experienced,6,26,non-blast,easy,non-blast,0.985,nonBlastEasy/ER0944_026.jpg
014,experienced,6,27,non-blast,hard,non-blast,0.768,nonBlastHard/OTH_21927765.jpg
014,experienced,6,28,blast,easy,blast,0.537,blastEasy/BL_4062100.jpg
014,experienced,6,29,non-blast,easy,non-blast,1.045,nonBlastEasy/ER0944_045.jpg
014,experienced,6,30,blast,hard,blast,0.508,blastHard/BL_24839872.jpg
014,experienced,6,31,blast,hard,blast,0.764,blastHard/BL_1121494.jpg
014,experienced,6,32,non-blast,hard,blast,1.373,nonBlastHard/PC_27623400.jpg
014,experienced,6,33,blast,easy,blast,0.842,blastEasy/BL_2256038.jpg
014,experienced,6,34,blast,easy,blast,0.582,blastEasy/BL_21930949.jpg
014,experienced,6,35,blast,hard,blast,1.035,blastHard/BL_4323236.jpg
014,experienced,6,36,blast,easy,blast,0.55,blastEasy/BL_23549452.jpg
014,experienced,6,37,non-blast,easy,non-blast,0.662,nonBlastEasy/IEO_25504204.jpg
014,experienced,6,38,non-blast,hard,non-blast,1.16,nonBlastHard/PC_27623562.jpg
014,experienced,6,39,non-blast,easy,non-blast,0.625,nonBlastEasy/EO_10020866.jpg
014,experienced,6,40,non-blast,hard,non-blast,1.12,nonBlastHard/ER0944_019.jpg
014,experienced,6,41,blast,easy,blast,0.548,blastEasy/BL_10020393.jpg
014,experienced,6,42,blast,easy,blast,0.546,blastEasy/OTH_12288083.jpg
014,experienced,6,43,non-blast,easy,non-blast,1.527,nonBlastEasy/LY_2010569.jpg
014,experienced,6,44,non-blast,easy,non-blast,0.609,nonBlastEasy/LY_8271868.jpg
014,experienced,6,45,non-blast,hard,non-blast,1.266,nonBlastHard/22638544_107.jpg
014,experienced,6,46,non-blast,easy,non-blast,1.378,nonBlastEasy/16258001115A_078.jpg
014,experienced,6,47,non-blast,easy,non-blast,0.668,nonBlastEasy/SNE_10020606.jpg
014,experienced,6,48,non-blast,easy,blast,1.119,nonBlastEasy/ER0944_044.jpg
014,experienced,6,49,non-blast,hard,non-blast,0.888,nonBlastHard/MY_22823793.jpg
014,experienced,6,50,blast,easy,blast,0.571,blastEasy/BL_1121478.jpg
014,experienced,6,51,blast,easy,blast,0.599,blastEasy/OTH_23078392.jpg
014,experienced,6,52,non-blast,hard,blast,1.249,nonBlastHard/VLY_1120658.jpg
014,experienced,6,53,blast,easy,blast,0.747,blastEasy/BL_4323220.jpg
014,experienced,6,54,blast,hard,blast,0.758,blastHard/BL_1121539.jpg
014,experienced,6,55,blast,hard,blast,0.614,blastHard/BL_294395.jpg
014,experienced,6,56,blast,hard,blast,0.824,blastHard/BL_3931143.jpg
014,experienced,6,57,non-blast,hard,non-blast,0.777,nonBlastHard/VLY_9460918.jpg
014,experienced,6,58,non-blast,hard,non-blast,1.188,nonBlastHard/ER0944_008.jpg
014,experienced,6,59,blast,easy,blast,0.509,blastEasy/BL_2256088.jpg
014,experienced,6,60,blast,hard,blast,0.565,blastHard/OTH_24746609.jpg
014,experienced,6,61,non-blast,hard,non-blast,0.701,nonBlastHard/MY_9455177.jpg
014,experienced,6,62,blast,hard,blast,0.62,blastHard/BL_4062135.jpg
014,experienced,6,63,blast,easy,blast,0.662,blastEasy/BL_7477512.jpg
014,experienced,6,64,blast,hard,blast,0.642,blastHard/BL_3931115.jpg
014,experienced,6,65,blast,easy,blast,0.74,blastEasy/OTH_21668256.jpg
014,experienced,6,66,blast,hard,blast,0.678,blastHard/OTH_12288133.jpg
014,experienced,6,67,blast,easy,blast,0.592,blastEasy/BL_4062150.jpg
014,experienced,6,68,blast,easy,blast,1.325,blastEasy/BL_1121443.jpg
014,experienced,6,69,blast,easy,blast,0.602,blastEasy/OTH_23078425.jpg
014,experienced,6,70,blast,hard,non-blast,0.582,blastHard/OTH_16204423.jpg
014,experienced,6,71,blast,hard,blast,0.658,blastHard/VLY_1120674.jpg
014,experienced,6,72,non-blast,easy,non-blast,0.613,nonBlastEasy/ER0944_025.jpg
014,experienced,6,73,non-blast,easy,non-blast,0.687,nonBlastEasy/ER0944_041.jpg
014,experienced,6,74,blast,easy,blast,0.583,blastEasy/OTH_25263205.jpg
014,experienced,6,75,blast,easy,blast,1.596,blastEasy/BL_3931099.jpg
014,experienced,6,76,blast,hard,blast,0.663,blastHard/BL_866426.jpg
014,experienced,6,77,blast,hard,blast,0.474,blastHard/BL_11637390.jpg
014,experienced,6,78,non-blast,easy,non-blast,0.553,nonBlastEasy/MO_14163624.jpg
014,experienced,6,79,blast,easy,blast,0.536,blastEasy/BL_12930032.jpg
014,experienced,6,80,non-blast,easy,non-blast,0.58,nonBlastEasy/16258001115A_012.jpg
014,experienced,6,81,blast,hard,blast,0.595,blastHard/OTH_23078430.jpg
014,experienced,6,82,non-blast,hard,non-blast,1.12,nonBlastHard/VLY_17642993.jpg
014,experienced,6,83,non-blast,easy,non-blast,0.775,nonBlastEasy/ER0944_015.jpg
014,experienced,6,84,non-blast,easy,non-blast,0.811,nonBlastEasy/LY_8271951.jpg
014,experienced,6,85,non-blast,easy,non-blast,0.779,nonBlastEasy/ER0944_013.jpg
014,experienced,6,86,blast,hard,blast,0.7,blastHard/BL_12930070.jpg
014,experienced,6,87,blast,hard,blast,0.51,blastHard/OTH_21675203.jpg
014,experienced,6,88,non-blast,hard,non-blast,0.641,nonBlastHard/HC_9634.jpg
014,experienced,6,89,blast,hard,blast,0.581,blastHard/VLY_9310359.jpg
014,experienced,6,90,non-blast,hard,blast,0.73,nonBlastHard/LY_22328223.jpg
014,experienced,6,91,blast,easy,blast,0.775,blastEasy/BL_23546068.jpg
014,experienced,6,92,blast,easy,blast,0.578,blastEasy/OTH_9820870.jpg
014,experienced,6,93,non-blast,hard,non-blast,0.738,nonBlastHard/16258001115A_036.jpg
014,experienced,6,94,non-blast,hard,non-blast,0.772,nonBlastHard/OTH_22719199.jpg
014,experienced,6,95,blast,hard,blast,0.657,blastHard/OTH_21675214.jpg
014,experienced,6,96,blast,easy,blast,0.802,blastEasy/BL_2256084.jpg
014,experienced,6,97,non-blast,hard,non-blast,0.897,nonBlastHard/MMY_10101248.jpg
014,experienced,6,98,non-blast,hard,blast,0.911,nonBlastHard/OTH_25092124.jpg
014,experienced,6,99,blast,easy,blast,0.546,blastEasy/BL_4062116.jpg
014,experienced,6,100,non-blast,easy,non-blast,0.762,nonBlastEasy/ER0944_047.jpg
016,experienced,2,1,blast,easy,blast,2.498,blastEasy/OTH_23078392.jpg
016,experienced,2,2,blast,hard,blast,2.236,blastHard/PMY_10101268.jpg
016,experienced,2,3,blast,hard,blast,1.349,blastHard/BL_899899.jpg
016,experienced,2,4,blast,hard,non-blast,2.525,blastHard/OTH_9820965.jpg
016,experienced,2,5,non-blast,easy,non-blast,1.127,nonBlastEasy/ER0944_003.jpg
016,experienced,2,6,non-blast,hard,blast,1.583,nonBlastHard/OTH_22719199.jpg
016,experienced,2,7,blast,easy,blast,0.78,blastEasy/OTH_12288092.jpg
016,experienced,2,8,non-blast,easy,non-blast,0.819,nonBlastEasy/ER0944_021.jpg
016,experienced,2,9,non-blast,hard,non-blast,0.851,nonBlastHard/BL_899866.jpg
016,experienced,2,10,non-blast,easy,non-blast,1.037,nonBlastEasy/MY_9113623.jpg
016,experienced,2,11,blast,hard,blast,1.142,blastHard/BL_21818179.jpg
016,experienced,2,12,non-blast,hard,non-blast,1.548,nonBlastHard/MY_9458406.jpg
016,experienced,2,13,non-blast,easy,non-blast,0.78,nonBlastEasy/SNE_10020606.jpg
016,experienced,2,14,non-blast,easy,non-blast,0.958,nonBlastEasy/ER0944_020.jpg
016,experienced,2,15,non-blast,hard,blast,2.293,nonBlastHard/PC_27623400.jpg
016,experienced,2,16,non-blast,easy,non-blast,0.648,nonBlastEasy/ER0944_040.jpg
016,experienced,2,17,blast,easy,blast,2.047,blastEasy/BL_3931099.jpg
016,experienced,2,18,non-blast,easy,non-blast,0.715,nonBlastEasy/ER0944_044.jpg
016,experienced,2,19,blast,easy,blast,0.81,blastEasy/OTH_25263205.jpg
016,experienced,2,20,blast,hard,blast,2.429,blastHard/BL_2038845.jpg
016,experienced,2,21,non-blast,easy,non-blast,0.579,nonBlastEasy/14228000751A_032.jpg
016,experienced,2,22,blast,hard,blast,2.004,blastHard/BL_26626220.jpg
016,experienced,2,23,blast,easy,blast,1.432,blastEasy/BL_21930875.jpg
016,experienced,2,24,blast,easy,blast,1.931,blastEasy/BL_3931099.jpg
016,experienced,2,25,blast,easy,blast,0.721,blastEasy/BL_10020421.jpg
016,experienced,2,26,non-blast,easy,non-blast,0.674,nonBlastEasy/SNE_374423.jpg
016,experienced,2,27,blast,hard,blast,1.697,blastHard/OTH_9820893.jpg
016,experienced,2,28,non-blast,hard,non-blast,0.878,nonBlastHard/ER0944_019.jpg
016,experienced,2,29,blast,easy,blast,0.808,blastEasy/BL_2256084.jpg
016,experienced,2,30,non-blast,easy,non-blast,0.669,nonBlastEasy/SNE_23013314.jpg
016,experienced,2,31,non-blast,easy,non-blast,0.627,nonBlastEasy/SNE_10020536.jpg
016,experienced,2,32,blast,hard,non-blast,2.829,blastHard/PMY_10101268.jpg
016,experienced,2,33,blast,hard,blast,0.859,blastHard/OTH_24746583.jpg
016,experienced,2,34,non-blast,hard,non-blast,1.433,nonBlastHard/VLY_23416215.jpg
016,experienced,2,35,non-blast,easy,non-blast,0.678,nonBlastEasy/SNE_25598556.jpg
016,experienced,2,36,blast,hard,blast,1.351,blastHard/VLY_1120674.jpg
016,experienced,2,37,non-blast,hard,non-blast,1.117,nonBlastHard/VLY_22576540.jpg
016,experienced,2,38,blast,easy,blast,2.845,blastEasy/BL_21930949.jpg
016,experienced,2,39,non-blast,easy,non-blast,0.745,nonBlastEasy/ER0944_007.jpg
016,experienced,2,40,blast,easy,blast,1.836,blastEasy/BL_12930095.jpg
016,experienced,2,41,blast,easy,blast,2.022,blastEasy/BL_24839843.jpg
016,experienced,2,42,blast,easy,blast,1.084,blastEasy/BL_14263216.jpg
016,experienced,2,43,non-blast,easy,non-blast,0.924,nonBlastEasy/ER0944_047.jpg
016,experienced,2,44,non-blast,hard,non-blast,1.277,nonBlastHard/MY_9449514.jpg
016,experienced,2,45,non-blast,hard,non-blast,1.475,nonBlastHard/VLY_2010536.jpg
016,experienced,2,46,blast,hard,blast,1.347,blastHard/OTH_23078373.jpg
016,experienced,2,47,blast,hard,blast,1.905,blastHard/OTH_12288082.jpg
016,experienced,2,48,blast,easy,blast,1.251,blastEasy/OTH_23078392.jpg
016,experienced,2,49,non-blast,easy,non-blast,0.921,nonBlastEasy/SNE_25598463.jpg
016,experienced,2,50,non-blast,hard,non-blast,1.939,nonBlastHard/PC_4237901.jpg
016,experienced,2,51,blast,hard,non-blast,1.689,blastHard/BL_12930089.jpg
016,experienced,2,52,blast,hard,blast,0.807,blastHard/BL_1121527.jpg
016,experienced,2,53,blast,hard,blast,0.697,blastHard/BL_4323243.jpg
016,experienced,2,54,blast,hard,blast,1.095,blastHard/BL_4062097.jpg
016,experienced,2,55,blast,hard,blast,0.945,blastHard/BL_24839872.jpg
016,experienced,2,56,non-blast,hard,non-blast,1.4,nonBlastHard/VLY_17642997.jpg
016,experienced,2,57,non-blast,hard,non-blast,0.672,nonBlastHard/16258001115A_032.jpg
016,experienced,2,58,non-blast,hard,non-blast,1.76,nonBlastHard/16258001115A_036.jpg
016,experienced,2,59,non-blast,easy,blast,2.249,nonBlastEasy/ER0944_035.jpg
016,experienced,2,60,blast,hard,blast,0.885,blastHard/BL_26626240.jpg
016,experienced,2,61,non-blast,hard,non-blast,1.415,nonBlastHard/MY_9455143.jpg
016,experienced,2,62,non-blast,hard,non-blast,2.384,nonBlastHard/16258001115A_076.jpg
016,experienced,2,63,blast,easy,blast,0.85,blastEasy/OTH_12288093.jpg
016,experienced,2,64,non-blast,hard,non-blast,1.48,nonBlastHard/MO_10021198.jpg
016,experienced,2,65,non-blast,hard,non-blast,2.764,nonBlastHard/MY_9458465.jpg
016,experienced,2,66,blast,easy,blast,1.457,blastEasy/BL_24839916.jpg
016,experienced,2,67,non-blast,easy,non-blast,0.827,nonBlastEasy/SNE_374450.jpg
016,experienced,2,68,non-blast,easy,non-blast,1.224,nonBlastEasy/ER0944_076.jpg
016,experienced,2,69,non-blast,hard,non-blast,3.472,nonBlastHard/VLY_4817070.jpg
016,experienced,2,70,non-blast,hard,blast,2.707,nonBlastHard/LY_14363603.jpg
016,experienced,2,71,blast,hard,blast,2.51,blastHard/BL_12930070.jpg
016,experienced,2,72,non-blast,easy,non-blast,0.922,nonBlastEasy/LY_10021352.jpg
016,experienced,2,73,non-blast,hard,blast,1.648,nonBlastHard/BL_11504083.jpg
016,experienced,2,74,blast,easy,non-blast,1.435,blastEasy/BL_10020442.jpg
016,experienced,2,75,blast,hard,non-blast,1.462,blastHard/OTH_21675203.jpg
016,experienced,2,76,blast,easy,blast,1,blastEasy/BL_7477462.jpg
016,experienced,2,77,blast,hard,non-blast,2.159,blastHard/BL_1121539.jpg
016,experienced,2,78,blast,easy,blast,2.062,blastEasy/VLY_10022863.jpg
016,experienced,2,79,blast,easy,blast,0.887,blastEasy/OTH_12288137.jpg
016,experienced,2,80,non-blast,easy,non-blast,1.046,nonBlastEasy/ER0944_013.jpg
016,experienced,2,81,blast,easy,blast,0.976,blastEasy/BL_26626166.jpg
016,experienced,2,82,blast,easy,blast,0.978,blastEasy/BL_21930875.jpg
016,experienced,2,83,non-blast,hard,non-blast,1.387,nonBlastHard/PMY_9295594.jpg
016,experienced,2,84,blast,easy,blast,1.581,blastEasy/OTH_24746620.jpg
016,experienced,2,85,blast,easy,blast,0.949,blastEasy/BL_12930032.jpg
016,experienced,2,86,blast,hard,blast,1.311,blastHard/PLY_6097305.jpg
016,experienced,2,87,blast,hard,non-blast,1.415,blastHard/BL_12930050.jpg
016,experienced,2,88,non-blast,easy,non-blast,1.681,nonBlastEasy/HC_9665.jpg
016,experienced,2,89,blast,easy,blast,1.491,blastEasy/OTH_12288083.jpg
016,experienced,2,90,non-blast,hard,non-blast,1.978,nonBlastHard/VLY_4522566.jpg
016,experienced,2,91,blast,hard,non-blast,1.956,blastHard/BL_21964515.jpg
016,experienced,2,92,non-blast,easy,non-blast,0.963,nonBlastEasy/ER0944_025.jpg
016,experienced,2,93,non-blast,hard,non-blast,0.905,nonBlastHard/VLY_17642979.jpg
016,experienced,2,94,non-blast,easy,non-blast,1.022,nonBlastEasy/OTH_21927760.jpg
016,experienced,2,95,blast,hard,blast,0.968,blastHard/BL_4323236.jpg
016,experienced,2,96,non-blast,easy,non-blast,0.691,nonBlastEasy/ER0944_075.jpg
016,experienced,2,97,blast,easy,blast,0.824,blastEasy/BL_7477450.jpg
016,experienced,2,98,non-blast,easy,non-blast,0.825,nonBlastEasy/ER0944_010.jpg
016,experienced,2,99,non-blast,hard,blast,1.046,nonBlastHard/VLY_9446390.jpg
016,experienced,2,100,non-blast,hard,non-blast,0.9,nonBlastHard/LY_22328223.jpg
016,experienced,5,1,blast,hard,blast,1.833,blastHard/BL_1199925.jpg
016,experienced,5,2,blast,hard,blast,3.592,blastHard/BL_23546038.jpg
016,experienced,5,3,blast,hard,blast,0.985,blastHard/BL_11637390.jpg
016,experienced,5,4,blast,easy,blast,2.836,blastEasy/BL_12930163.jpg
016,experienced,5,5,blast,easy,blast,0.861,blastEasy/BL_4062132.jpg
016,experienced,5,6,non-blast,easy,non-blast,0.827,nonBlastEasy/PC_6228.jpg
016,experienced,5,7,non-blast,easy,non-blast,0.866,nonBlastEasy/MO_22576415.jpg
016,experienced,5,8,non-blast,hard,non-blast,2.087,nonBlastHard/MMY_10101248.jpg
016,experienced,5,9,blast,easy,blast,1.043,blastEasy/OTH_2275667.jpg
016,experienced,5,10,blast,easy,blast,1.204,blastEasy/OTH_25263205.jpg
016,experienced,5,11,blast,easy,blast,3.096,blastEasy/BL_4323220.jpg
016,experienced,5,12,non-blast,easy,non-blast,0.725,nonBlastEasy/MO_14163624.jpg
016,experienced,5,13,blast,easy,blast,2.426,blastEasy/OTH_25263205.jpg
016,experienced,5,14,blast,hard,blast,2.276,blastHard/BL_2256090.jpg
016,experienced,5,15,non-blast,hard,non-blast,2.188,nonBlastHard/LY_14363603.jpg
016,experienced,5,16,blast,easy,blast,2.778,blastEasy/BL_4062150.jpg
016,experienced,5,17,blast,easy,non-blast,2.322,blastEasy/BL_10020442.jpg
016,experienced,5,18,non-blast,hard,non-blast,1.974,nonBlastHard/OTH_21927751.jpg
016,experienced,5,19,non-blast,easy,non-blast,0.731,nonBlastEasy/ER0944_045.jpg
016,experienced,5,20,blast,hard,blast,3.142,blastHard/VLY_9310359.jpg
016,experienced,5,21,blast,easy,blast,1.988,blastEasy/BL_24839916.jpg
016,experienced,5,22,blast,hard,non-blast,1.847,blastHard/BL_4062135.jpg
016,experienced,5,23,blast,hard,non-blast,0.806,blastHard/OTH_16204423.jpg
016,experienced,5,24,non-blast,hard,non-blast,1.538,nonBlastHard/VLY_9451032.jpg
016,experienced,5,25,non-blast,easy,non-blast,4.111,nonBlastEasy/VLY_4420447.jpg
016,experienced,5,26,blast,easy,blast,1.479,blastEasy/BL_21930949.jpg
016,experienced,5,27,blast,easy,blast,0.849,blastEasy/BL_10020421.jpg
